lambda	Flux	e_Flux
0.1nm	10-2W/m2/nm	10-2W/m2/nm
---------	----------	----------
4750.3900	1.9942e-12	5.2144e-14
4751.6400	2.0960e-12	2.0168e-14
4752.8900	2.0785e-12	1.9286e-14
4754.1400	2.0594e-12	2.1370e-14
4755.3900	2.0410e-12	2.3028e-14
4756.6400	2.0674e-12	2.2576e-14
4757.8900	2.0871e-12	2.1879e-14
4759.1400	2.0821e-12	2.0918e-14
4760.3900	2.0644e-12	1.8247e-14
4761.6400	2.0116e-12	2.1202e-14
4762.8900	2.0098e-12	1.9614e-14
4764.1400	2.0303e-12	2.1995e-14
4765.3900	2.0564e-12	2.1242e-14
4766.6400	2.0520e-12	2.2092e-14
4767.8900	2.0562e-12	2.2977e-14
4769.1400	2.0600e-12	2.3840e-14
4770.3900	2.0673e-12	2.2791e-14
4771.6400	2.0372e-12	2.1028e-14
4772.8900	2.0233e-12	2.0178e-14
4774.1400	2.0442e-12	1.6878e-14
4775.3900	2.0601e-12	1.8095e-14
4776.6400	2.0670e-12	2.1481e-14
4777.8900	2.0567e-12	2.4215e-14
4779.1400	2.0371e-12	2.0854e-14
4780.3900	2.0426e-12	2.1140e-14
4781.6400	2.0431e-12	2.0374e-14
4782.8900	2.0313e-12	1.9555e-14
4784.1400	2.0352e-12	2.3353e-14
4785.3900	2.0170e-12	2.4625e-14
4786.6400	2.0053e-12	2.2366e-14
4787.8900	2.0146e-12	2.2161e-14
4789.1400	2.0177e-12	2.1707e-14
4790.3900	2.0346e-12	2.0520e-14
4791.6400	2.0459e-12	2.3021e-14
4792.8900	2.0551e-12	2.0861e-14
4794.1400	2.0650e-12	2.0397e-14
4795.3900	2.0639e-12	2.2754e-14
4796.6400	2.0492e-12	2.1424e-14
4797.8900	2.0308e-12	1.9118e-14
4799.1400	2.0263e-12	2.0781e-14
4800.3900	2.0373e-12	1.9311e-14
4801.6400	2.0467e-12	2.0303e-14
4802.8900	2.0379e-12	2.0740e-14
4804.1400	2.0086e-12	1.9837e-14
4805.3900	2.0113e-12	1.9778e-14
4806.6400	2.0315e-12	1.9021e-14
4807.8900	2.0358e-12	1.8651e-14
4809.1400	2.0285e-12	1.8673e-14
4810.3900	2.0253e-12	2.0331e-14
4811.6400	2.0371e-12	1.8935e-14
4812.8900	2.0475e-12	1.9291e-14
4814.1400	2.0498e-12	2.1109e-14
4815.3900	2.0549e-12	2.3874e-14
4816.6400	2.0514e-12	2.0025e-14
4817.8900	2.0526e-12	2.1585e-14
4819.1400	2.0516e-12	2.1196e-14
4820.3900	2.0468e-12	2.0468e-14
4821.6400	2.0208e-12	2.2253e-14
4822.8900	1.9847e-12	2.2305e-14
4824.1400	1.9950e-12	1.9887e-14
4825.3900	2.0339e-12	2.1570e-14
4826.6400	2.0397e-12	1.8867e-14
4827.8900	2.0225e-12	1.9394e-14
4829.1400	2.0165e-12	1.9520e-14
4830.3900	2.0176e-12	1.9765e-14
4831.6400	2.0200e-12	2.1475e-14
4832.8900	2.0264e-12	2.1772e-14
4834.1400	2.0305e-12	1.9643e-14
4835.3900	2.0250e-12	2.1134e-14
4836.6400	2.0227e-12	1.9830e-14
4837.8900	2.0079e-12	1.9575e-14
4839.1400	1.9904e-12	2.0995e-14
4840.3900	1.9891e-12	2.1094e-14
4841.6400	1.9973e-12	1.9823e-14
4842.8900	1.9977e-12	2.1202e-14
4844.1400	2.0040e-12	2.1291e-14
4845.3900	2.0011e-12	2.1113e-14
4846.6400	1.9780e-12	1.9847e-14
4847.8900	1.9584e-12	2.0541e-14
4849.1400	1.9604e-12	1.9365e-14
4850.3900	1.9619e-12	1.9240e-14
4851.6400	1.9443e-12	1.9034e-14
4852.8900	1.9141e-12	1.8019e-14
4854.1400	1.8513e-12	2.0969e-14
4855.3900	1.8048e-12	1.9567e-14
4856.6400	1.7760e-12	1.6567e-14
4857.8900	1.6629e-12	1.9218e-14
4859.1400	1.3959e-12	2.0780e-14
4860.3900	1.1422e-12	1.8691e-14
4861.6400	1.2534e-12	8.2865e-15
4862.8900	1.5528e-12	9.9968e-15
4864.1400	1.7171e-12	1.6023e-14
4865.3900	1.7977e-12	1.7586e-14
4866.6400	1.8574e-12	1.8646e-14
4867.8900	1.8976e-12	1.8753e-14
4869.1400	1.8898e-12	1.8588e-14
4870.3900	1.8345e-12	1.9525e-14
4871.6400	1.8388e-12	1.8089e-14
4872.8900	1.9120e-12	1.8070e-14
4874.1400	1.9537e-12	2.0325e-14
4875.3900	1.9553e-12	2.0047e-14
4876.6400	1.9300e-12	1.8364e-14
4877.8900	1.9286e-12	1.9063e-14
4879.1400	1.9806e-12	1.9531e-14
4880.3900	1.9986e-12	2.0717e-14
4881.6400	1.9847e-12	1.8031e-14
4882.8900	1.9794e-12	1.9317e-14
4884.1400	1.9693e-12	2.0855e-14
4885.3900	1.9621e-12	1.9782e-14
4886.6400	1.9692e-12	1.9778e-14
4887.8900	1.9671e-12	1.9652e-14
4889.1400	1.9272e-12	1.9143e-14
4890.3900	1.8709e-12	1.6552e-14
4891.6400	1.9226e-12	1.8283e-14
4892.8900	2.0129e-12	1.7434e-14
4894.1400	2.0382e-12	1.9497e-14
4895.3900	2.0425e-12	1.8798e-14
4896.6400	2.0420e-12	1.8504e-14
4897.8900	2.0286e-12	2.0107e-14
4899.1400	2.0046e-12	2.0088e-14
4900.3900	2.0095e-12	1.8564e-14
4901.6400	2.0016e-12	1.8441e-14
4902.8900	1.9738e-12	1.9665e-14
4904.1400	1.9967e-12	1.8271e-14
4905.3900	2.0328e-12	2.0315e-14
4906.6400	2.0316e-12	1.8924e-14
4907.8900	2.0124e-12	2.0387e-14
4909.1400	1.9744e-12	1.9719e-14
4910.3900	1.9681e-12	1.6919e-14
4911.6400	2.0013e-12	1.7426e-14
4912.8900	2.0219e-12	1.9703e-14
4914.1400	2.0343e-12	1.9568e-14
4915.3900	2.0370e-12	1.8134e-14
4916.6400	1.9942e-12	2.0031e-14
4917.8900	1.9200e-12	1.9223e-14
4919.1400	1.8689e-12	1.8637e-14
4920.3900	1.9016e-12	1.5405e-14
4921.6400	1.9545e-12	1.7791e-14
4922.8900	1.9437e-12	1.8481e-14
4924.1400	1.9514e-12	1.7151e-14
4925.3900	2.0052e-12	1.8908e-14
4926.6400	2.0284e-12	2.1239e-14
4927.8900	2.0322e-12	2.0060e-14
4929.1400	2.0362e-12	1.8271e-14
4930.3900	2.0369e-12	1.8784e-14
4931.6400	2.0039e-12	2.0014e-14
4932.8900	1.9391e-12	1.7554e-14
4934.1400	1.9450e-12	1.7640e-14
4935.3900	1.9979e-12	1.6904e-14
4936.6400	1.9821e-12	1.7932e-14
4937.8900	1.9319e-12	1.8275e-14
4939.1400	1.9452e-12	1.6734e-14
4940.3900	2.0088e-12	1.6008e-14
4941.6400	2.0366e-12	1.7042e-14
4942.8900	2.0411e-12	1.9104e-14
4944.1400	2.0335e-12	1.8528e-14
4945.3900	2.0116e-12	2.0048e-14
4946.6400	2.0205e-12	1.7285e-14
4947.8900	2.0363e-12	1.6470e-14
4949.1400	2.0347e-12	2.1005e-14
4950.3900	2.0358e-12	1.9826e-14
4951.6400	2.0344e-12	1.8718e-14
4952.8900	2.0310e-12	1.7833e-14
4954.1400	2.0288e-12	1.6939e-14
4955.3900	1.9591e-12	1.7546e-14
4956.6400	1.8507e-12	1.9233e-14
4957.8900	1.9039e-12	1.6761e-14
4959.1400	2.0210e-12	1.6947e-14
4960.3900	2.0410e-12	1.9772e-14
4961.6400	2.0372e-12	1.8095e-14
4962.8900	2.0361e-12	1.7054e-14
4964.1400	2.0182e-12	1.8405e-14
4965.3900	1.9943e-12	2.0718e-14
4966.6400	1.9978e-12	1.7693e-14
4967.8900	2.0031e-12	1.6998e-14
4969.1400	2.0022e-12	1.6531e-14
4970.3900	2.0098e-12	1.6716e-14
4971.6400	2.0155e-12	1.7405e-14
4972.8900	2.0173e-12	1.7763e-14
4974.1400	2.0283e-12	1.6656e-14
4975.3900	2.0303e-12	1.8012e-14
4976.6400	2.0182e-12	1.7634e-14
4977.8900	2.0022e-12	1.7261e-14
4979.1400	1.9798e-12	1.8363e-14
4980.3900	1.9371e-12	1.9031e-14
4981.6400	1.8822e-12	1.7294e-14
4982.8900	1.8671e-12	1.8813e-14
4984.1400	1.8978e-12	1.8191e-14
4985.3900	1.9531e-12	1.8818e-14
4986.6400	2.0012e-12	1.7793e-14
4987.8900	2.0046e-12	1.7900e-14
4989.1400	1.9783e-12	1.6515e-14
4990.3900	1.9548e-12	2.0569e-14
4991.6400	1.9676e-12	1.9728e-14
4992.8900	1.9750e-12	1.8323e-14
4994.1400	1.9792e-12	1.7330e-14
4995.3900	2.0023e-12	1.8581e-14
4996.6400	2.0039e-12	1.9093e-14
4997.8900	1.9785e-12	2.0464e-14
4999.1400	1.9476e-12	1.7405e-14
5000.3900	1.9357e-12	1.8070e-14
5001.6400	1.9443e-12	1.7380e-14
5002.8900	1.9685e-12	1.7392e-14
5004.1400	1.9347e-12	1.9171e-14
5005.3900	1.8643e-12	1.7903e-14
5006.6400	1.8900e-12	1.7788e-14
5007.8900	1.9701e-12	1.6586e-14
5009.1400	1.9912e-12	1.7863e-14
5010.3900	1.9537e-12	2.0243e-14
5011.6400	1.9059e-12	1.8026e-14
5012.8900	1.8751e-12	1.7989e-14
5014.1400	1.8860e-12	1.7506e-14
5015.3900	1.9249e-12	1.6949e-14
5016.6400	1.8987e-12	1.9771e-14
5017.8900	1.8748e-12	1.7165e-14
5019.1400	1.9228e-12	1.5849e-14
5020.3900	1.9498e-12	2.0110e-14
5021.6400	1.9388e-12	2.0342e-14
5022.8900	1.9505e-12	1.8739e-14
5024.1400	1.9674e-12	1.8629e-14
5025.3900	1.9555e-12	1.8138e-14
5026.6400	1.9386e-12	1.8383e-14
5027.8900	1.9498e-12	1.8429e-14
5029.1400	1.9636e-12	1.8875e-14
5030.3900	1.9631e-12	1.8786e-14
5031.6400	1.9805e-12	1.7746e-14
5032.8900	1.9831e-12	1.8048e-14
5034.1400	1.9393e-12	1.9162e-14
5035.3900	1.9073e-12	1.6608e-14
5036.6400	1.9282e-12	1.6997e-14
5037.8900	1.9236e-12	1.7087e-14
5039.1400	1.8709e-12	1.8927e-14
5040.3900	1.8123e-12	1.7889e-14
5041.6400	1.8514e-12	1.5216e-14
5042.8900	1.9392e-12	1.6880e-14
5044.1400	1.9713e-12	1.7002e-14
5045.3900	1.9775e-12	1.7979e-14
5046.6400	1.9648e-12	1.8423e-14
5047.8900	1.9251e-12	1.9529e-14
5049.1400	1.8951e-12	1.7732e-14
5050.3900	1.8928e-12	1.6405e-14
5051.6400	1.9173e-12	1.7714e-14
5052.8900	1.9533e-12	1.7754e-14
5054.1400	1.9696e-12	1.7501e-14
5055.3900	1.9698e-12	1.9021e-14
5056.6400	1.9704e-12	1.8701e-14
5057.8900	1.9710e-12	1.7798e-14
5059.1400	1.9692e-12	1.7583e-14
5060.3900	1.9705e-12	1.7661e-14
5061.6400	1.9691e-12	1.6962e-14
5062.8900	1.9400e-12	1.4931e-14
5064.1400	1.8966e-12	1.5909e-14
5065.3900	1.9082e-12	1.6960e-14
5066.6400	1.9292e-12	1.4668e-14
5067.8900	1.9143e-12	1.7651e-14
5069.1400	1.9307e-12	1.6639e-14
5070.3900	1.9401e-12	1.9073e-14
5071.6400	1.9209e-12	1.5743e-14
5072.8900	1.9192e-12	1.7015e-14
5074.1400	1.9157e-12	1.7765e-14
5075.3900	1.9264e-12	1.6341e-14
5076.6400	1.9328e-12	1.5396e-14
5077.8900	1.8754e-12	1.7970e-14
5079.1400	1.8169e-12	1.5329e-14
5080.3900	1.8470e-12	1.5994e-14
5081.6400	1.8797e-12	1.6768e-14
5082.8900	1.8792e-12	1.7227e-14
5084.1400	1.9089e-12	1.5949e-14
5085.3900	1.9381e-12	1.7568e-14
5086.6400	1.9322e-12	1.8191e-14
5087.8900	1.9335e-12	1.8550e-14
5089.1400	1.9327e-12	2.0875e-14
5090.3900	1.9278e-12	1.8232e-14
5091.6400	1.9396e-12	1.8345e-14
5092.8900	1.9477e-12	1.6975e-14
5094.1400	1.9443e-12	1.6541e-14
5095.3900	1.9214e-12	1.7435e-14
5096.6400	1.8797e-12	1.6445e-14
5097.8900	1.8484e-12	1.4750e-14
5099.1400	1.8659e-12	1.5075e-14
5100.3900	1.9134e-12	1.6374e-14
5101.6400	1.9343e-12	1.6345e-14
5102.8900	1.9322e-12	1.6043e-14
5104.1400	1.9249e-12	1.5993e-14
5105.3900	1.8968e-12	1.5084e-14
5106.6400	1.8590e-12	1.6240e-14
5107.8900	1.8576e-12	1.6584e-14
5109.1400	1.8658e-12	1.5886e-14
5110.3900	1.8777e-12	1.5184e-14
5111.6400	1.9178e-12	1.7073e-14
5112.8900	1.9263e-12	1.6444e-14
5114.1400	1.9169e-12	1.3864e-14
5115.3900	1.9160e-12	1.7189e-14
5116.6400	1.9275e-12	1.7740e-14
5117.8900	1.9306e-12	1.8265e-14
5119.1400	1.9226e-12	1.6993e-14
5120.3900	1.9079e-12	1.7706e-14
5121.6400	1.8889e-12	1.6381e-14
5122.8900	1.8595e-12	1.7244e-14
5124.1400	1.8464e-12	1.6999e-14
5125.3900	1.8588e-12	1.5669e-14
5126.6400	1.8651e-12	1.3643e-14
5127.8900	1.8579e-12	1.6138e-14
5129.1400	1.8652e-12	1.5717e-14
5130.3900	1.8805e-12	1.6738e-14
5131.6400	1.8765e-12	1.6386e-14
5132.8900	1.8635e-12	1.8344e-14
5134.1400	1.8826e-12	1.5356e-14
5135.3900	1.8831e-12	1.5982e-14
5136.6400	1.8447e-12	1.6328e-14
5137.8900	1.7983e-12	1.6686e-14
5139.1400	1.7994e-12	1.5556e-14
5140.3900	1.8398e-12	1.4152e-14
5141.6400	1.8170e-12	1.7478e-14
5142.8900	1.8380e-12	1.3728e-14
5144.1400	1.8823e-12	1.6437e-14
5145.3900	1.8737e-12	1.6854e-14
5146.6400	1.8576e-12	1.7609e-14
5147.8900	1.8678e-12	1.5349e-14
5149.1400	1.8732e-12	1.6674e-14
5150.3900	1.8522e-12	1.7246e-14
5151.6400	1.8516e-12	1.5669e-14
5152.8900	1.8562e-12	1.6938e-14
5154.1400	1.8605e-12	1.6569e-14
5155.3900	1.8849e-12	1.6345e-14
5156.6400	1.8992e-12	1.5763e-14
5157.8900	1.8972e-12	1.5835e-14
5159.1400	1.8966e-12	1.5717e-14
5160.3900	1.8799e-12	1.7086e-14
5161.6400	1.8583e-12	1.4738e-14
5162.8900	1.8686e-12	1.6710e-14
5164.1400	1.8441e-12	1.6647e-14
5165.3900	1.7097e-12	1.7181e-14
5166.6400	1.5768e-12	1.3762e-14
5167.8900	1.6129e-12	1.3284e-14
5169.1400	1.7316e-12	1.6081e-14
5170.3900	1.6931e-12	1.9273e-14
5171.6400	1.5393e-12	1.4796e-14
5172.8900	1.6043e-12	1.0399e-14
5174.1400	1.8039e-12	1.4902e-14
5175.3900	1.8779e-12	1.5896e-14
5176.6400	1.8875e-12	1.6232e-14
5177.8900	1.8895e-12	1.5802e-14
5179.1400	1.8837e-12	1.5761e-14
5180.3900	1.8442e-12	1.7015e-14
5181.6400	1.6792e-12	1.4859e-14
5182.8900	1.4962e-12	1.4776e-14
5184.1400	1.5994e-12	1.3520e-14
5185.3900	1.7954e-12	1.5071e-14
5186.6400	1.8303e-12	1.4033e-14
5187.8900	1.7994e-12	1.6330e-14
5189.1400	1.8117e-12	1.5300e-14
5190.3900	1.7991e-12	1.3649e-14
5191.6400	1.7564e-12	1.6295e-14
5192.8900	1.7935e-12	1.4344e-14
5194.1400	1.8031e-12	1.5312e-14
5195.3900	1.8055e-12	1.6662e-14
5196.6400	1.8277e-12	1.9074e-14
5197.8900	1.8374e-12	1.6631e-14
5199.1400	1.8638e-12	1.6397e-14
5200.3900	1.8615e-12	1.5399e-14
5201.6400	1.8380e-12	1.5562e-14
5202.8900	1.8143e-12	1.5664e-14
5204.1400	1.7743e-12	1.6235e-14
5205.3900	1.7746e-12	1.6176e-14
5206.6400	1.7875e-12	1.7740e-14
5207.8900	1.7725e-12	1.4728e-14
5209.1400	1.8059e-12	1.3281e-14
5210.3900	1.8518e-12	1.5705e-14
5211.6400	1.8791e-12	1.5319e-14
5212.8900	1.8784e-12	1.5371e-14
5214.1400	1.8355e-12	1.7324e-14
5215.3900	1.7984e-12	1.6090e-14
5216.6400	1.8148e-12	1.4425e-14
5217.8900	1.8608e-12	1.3760e-14
5219.1400	1.8869e-12	1.4465e-14
5220.3900	1.8893e-12	1.5880e-14
5221.6400	1.8876e-12	1.5329e-14
5222.8900	1.8733e-12	1.5664e-14
5224.1400	1.8347e-12	1.5409e-14
5225.3900	1.7311e-12	1.5279e-14
5226.6400	1.7050e-12	1.2172e-14
5227.8900	1.7930e-12	1.3688e-14
5229.1400	1.8414e-12	1.3871e-14
5230.3900	1.8465e-12	1.3054e-14
5231.6400	1.8112e-12	1.5471e-14
5232.8900	1.7868e-12	1.4100e-14
5234.1400	1.8125e-12	1.3622e-14
5235.3900	1.8457e-12	1.3532e-14
5236.6400	1.8668e-12	1.4812e-14
5237.8900	1.8708e-12	1.3668e-14
5239.1400	1.8731e-12	1.4976e-14
5240.3900	1.8710e-12	1.7818e-14
5241.6400	1.8616e-12	1.4768e-14
5242.8900	1.8637e-12	1.4607e-14
5244.1400	1.8791e-12	1.4785e-14
5245.3900	1.8724e-12	1.4352e-14
5246.6400	1.8598e-12	1.4350e-14
5247.8900	1.8577e-12	1.3438e-14
5249.1400	1.8450e-12	1.3463e-14
5250.3900	1.8395e-12	1.2690e-14
5251.6400	1.8571e-12	1.5100e-14
5252.8900	1.8558e-12	1.2772e-14
5254.1400	1.8480e-12	1.3649e-14
5255.3900	1.8625e-12	1.5804e-14
5256.6400	1.8814e-12	1.4328e-14
5257.8900	1.8826e-12	1.5069e-14
5259.1400	1.8690e-12	1.4794e-14
5260.3900	1.8205e-12	1.4405e-14
5261.6400	1.7632e-12	1.2812e-14
5262.8900	1.7425e-12	1.3085e-14
5264.1400	1.7276e-12	1.3644e-14
5265.3900	1.7287e-12	1.4962e-14
5266.6400	1.7743e-12	1.2952e-14
5267.8900	1.7529e-12	1.3253e-14
5269.1400	1.6642e-12	1.5148e-14
5270.3900	1.7274e-12	1.2978e-14
5271.6400	1.8088e-12	1.3689e-14
5272.8900	1.8065e-12	1.4475e-14
5274.1400	1.7999e-12	1.6428e-14
5275.3900	1.8016e-12	1.3760e-14
5276.6400	1.8439e-12	1.2802e-14
5277.8900	1.8707e-12	1.4687e-14
5279.1400	1.8590e-12	1.4778e-14
5280.3900	1.8261e-12	1.6111e-14
5281.6400	1.7982e-12	1.3912e-14
5282.8900	1.7841e-12	1.4350e-14
5284.1400	1.8221e-12	1.3635e-14
5285.3900	1.8673e-12	1.3764e-14
5286.6400	1.8732e-12	1.5705e-14
5287.8900	1.8694e-12	1.3375e-14
5289.1400	1.8726e-12	1.4212e-14
5290.3900	1.8757e-12	1.4026e-14
5291.6400	1.8732e-12	1.3477e-14
5292.8900	1.8720e-12	1.4242e-14
5294.1400	1.8659e-12	1.3685e-14
5295.3900	1.8406e-12	1.4839e-14
5296.6400	1.8044e-12	1.4970e-14
5297.8900	1.8105e-12	1.2893e-14
5299.1400	1.8449e-12	1.4835e-14
5300.3900	1.8415e-12	1.3370e-14
5301.6400	1.8261e-12	1.3614e-14
5302.8900	1.8459e-12	1.1862e-14
5304.1400	1.8651e-12	1.3096e-14
5305.3900	1.8563e-12	1.3945e-14
5306.6400	1.8462e-12	1.1974e-14
5307.8900	1.8556e-12	1.1178e-14
5309.1400	1.8715e-12	1.3496e-14
5310.3900	1.8724e-12	1.4700e-14
5311.6400	1.8676e-12	1.4458e-14
5312.8900	1.8641e-12	1.4516e-14
5314.1400	1.8501e-12	1.4062e-14
5315.3900	1.8092e-12	1.3441e-14
5316.6400	1.8069e-12	1.2567e-14
5317.8900	1.8480e-12	1.2231e-14
5319.1400	1.8635e-12	1.3435e-14
5320.3900	1.8580e-12	1.3918e-14
5321.6400	1.8432e-12	1.4302e-14
5322.8900	1.8040e-12	1.5512e-14
5324.1400	1.7940e-12	1.4482e-14
5325.3900	1.8133e-12	1.2797e-14
5326.6400	1.7432e-12	1.2058e-14
5327.8900	1.6900e-12	1.3717e-14
5329.1400	1.7732e-12	1.2863e-14
5330.3900	1.8422e-12	1.2376e-14
5331.6400	1.8365e-12	1.3473e-14
5332.8900	1.8355e-12	1.3057e-14
5334.1400	1.8479e-12	1.3040e-14
5335.3900	1.8325e-12	1.2152e-14
5336.6400	1.8249e-12	1.2866e-14
5337.8900	1.8246e-12	1.3694e-14
5339.1400	1.7869e-12	1.2206e-14
5340.3900	1.7751e-12	1.3437e-14
5341.6400	1.8197e-12	1.3467e-14
5342.8900	1.8496e-12	1.3892e-14
5344.1400	1.8382e-12	1.4489e-14
5345.3900	1.8232e-12	1.4086e-14
5346.6400	1.8242e-12	1.2277e-14
5347.8900	1.8105e-12	1.3177e-14
5349.1400	1.8095e-12	1.2550e-14
5350.3900	1.8416e-12	1.1099e-14
5351.6400	1.8482e-12	1.2879e-14
5352.8900	1.8429e-12	1.2851e-14
5354.1400	1.8554e-12	1.2053e-14
5355.3900	1.8630e-12	1.2354e-14
5356.6400	1.8631e-12	1.2993e-14
5357.8900	1.8632e-12	1.2531e-14
5359.1400	1.8621e-12	1.2534e-14
5360.3900	1.8537e-12	1.1823e-14
5361.6400	1.8283e-12	1.3241e-14
5362.8900	1.8103e-12	1.4413e-14
5364.1400	1.7976e-12	1.3655e-14
5365.3900	1.8017e-12	1.3955e-14
5366.6400	1.8061e-12	1.2328e-14
5367.8900	1.8035e-12	1.3712e-14
5369.1400	1.7744e-12	1.4763e-14
5370.3900	1.7409e-12	1.1435e-14
5371.6400	1.7775e-12	1.2245e-14
5372.8900	1.8312e-12	1.3057e-14
5374.1400	1.8498e-12	1.4040e-14
5375.3900	1.8556e-12	1.3406e-14
5376.6400	1.8515e-12	1.3452e-14
5377.8900	1.8466e-12	1.2486e-14
5379.1400	1.8300e-12	1.2120e-14
5380.3900	1.8178e-12	1.0347e-14
5381.6400	1.8031e-12	1.2917e-14
5382.8900	1.8002e-12	1.2855e-14
5384.1400	1.8286e-12	1.2849e-14
5385.3900	1.8477e-12	1.4229e-14
5386.6400	1.8468e-12	1.3091e-14
5387.8900	1.8365e-12	1.2458e-14
5389.1400	1.8259e-12	1.3526e-14
5390.3900	1.8209e-12	1.3909e-14
5391.6400	1.8072e-12	1.2961e-14
5392.8900	1.8058e-12	1.0855e-14
5394.1400	1.8243e-12	1.4503e-14
5395.3900	1.7972e-12	1.2376e-14
5396.6400	1.7667e-12	1.0739e-14
5397.8900	1.7951e-12	1.1945e-14
5399.1400	1.8164e-12	1.1045e-14
5400.3900	1.8194e-12	1.2625e-14
5401.6400	1.8202e-12	1.3940e-14
5402.8900	1.7785e-12	1.3661e-14
5404.1400	1.7365e-12	1.1999e-14
5405.3900	1.7526e-12	1.2855e-14
5406.6400	1.8029e-12	1.4115e-14
5407.8900	1.8113e-12	1.4703e-14
5409.1400	1.7753e-12	1.4112e-14
5410.3900	1.7789e-12	1.3597e-14
5411.6400	1.8185e-12	1.2577e-14
5412.8900	1.8245e-12	1.2509e-14
5414.1400	1.7960e-12	1.2245e-14
5415.3900	1.8036e-12	1.2408e-14
5416.6400	1.8302e-12	1.3267e-14
5417.8900	1.8261e-12	1.2086e-14
5419.1400	1.8274e-12	1.4081e-14
5420.3900	1.8313e-12	1.2969e-14
5421.6400	1.8228e-12	1.3367e-14
5422.8900	1.7880e-12	1.3436e-14
5424.1400	1.7833e-12	1.3396e-14
5425.3900	1.8246e-12	1.0270e-14
5426.6400	1.8390e-12	1.1823e-14
5427.8900	1.7941e-12	1.3534e-14
5429.1400	1.7546e-12	1.2926e-14
5430.3900	1.7948e-12	1.1341e-14
5431.6400	1.8202e-12	1.0681e-14
5432.8900	1.7852e-12	1.2910e-14
5434.1400	1.7684e-12	1.2455e-14
5435.3900	1.8011e-12	1.0315e-14
5436.6400	1.8298e-12	1.2650e-14
5437.8900	1.8400e-12	1.1005e-14
5439.1400	1.8419e-12	1.2711e-14
5440.3900	1.8388e-12	1.2319e-14
5441.6400	1.8389e-12	1.2580e-14
5442.8900	1.8266e-12	1.3802e-14
5444.1400	1.7921e-12	1.2315e-14
5445.3900	1.7419e-12	1.4631e-14
5446.6400	1.7486e-12	1.2692e-14
5447.8900	1.8071e-12	9.3594e-15
5449.1400	1.8351e-12	1.1343e-14
5450.3900	1.8346e-12	1.2047e-14
5451.6400	1.8318e-12	1.2258e-14
5452.8900	1.8142e-12	1.3509e-14
5454.1400	1.7481e-12	1.3742e-14
5455.3900	1.7348e-12	1.1088e-14
5456.6400	1.8022e-12	8.9408e-15
5457.8900	1.8322e-12	1.2158e-14
5459.1400	1.8312e-12	1.2733e-14
5460.3900	1.8213e-12	1.2801e-14
5461.6400	1.7852e-12	1.3110e-14
5462.8900	1.7732e-12	1.1737e-14
5464.1400	1.8029e-12	1.2262e-14
5465.3900	1.8097e-12	1.1260e-14
5466.6400	1.8115e-12	1.1973e-14
5467.8900	1.8228e-12	1.1159e-14
5469.1400	1.8219e-12	1.1432e-14
5470.3900	1.8227e-12	1.2226e-14
5471.6400	1.8154e-12	1.1406e-14
5472.8900	1.8025e-12	1.0123e-14
5474.1400	1.7874e-12	1.3101e-14
5475.3900	1.7394e-12	1.3508e-14
5476.6400	1.7290e-12	1.0814e-14
5477.8900	1.7846e-12	1.1677e-14
5479.1400	1.8061e-12	1.1485e-14
5480.3900	1.7992e-12	1.1658e-14
5481.6400	1.8007e-12	1.0788e-14
5482.8900	1.8099e-12	1.2031e-14
5484.1400	1.8173e-12	1.2806e-14
5485.3900	1.8097e-12	1.2040e-14
5486.6400	1.7936e-12	1.0545e-14
5487.8900	1.7940e-12	1.1500e-14
5489.1400	1.8037e-12	1.2056e-14
5490.3900	1.8072e-12	1.1446e-14
5491.6400	1.8064e-12	1.1881e-14
5492.8900	1.8020e-12	1.2535e-14
5494.1400	1.8045e-12	1.2690e-14
5495.3900	1.7933e-12	1.2607e-14
5496.6400	1.7693e-12	1.0766e-14
5497.8900	1.7805e-12	1.0382e-14
5499.1400	1.7985e-12	1.0855e-14
5500.3900	1.7749e-12	1.0033e-14
5501.6400	1.7701e-12	1.1463e-14
5502.8900	1.7938e-12	1.0262e-14
5504.1400	1.7987e-12	9.2767e-15
5505.3900	1.7707e-12	1.1248e-14
5506.6400	1.7648e-12	1.0662e-14
5507.8900	1.7913e-12	9.8308e-15
5509.1400	1.7978e-12	9.7693e-15
5510.3900	1.7907e-12	1.1682e-14
5511.6400	1.7758e-12	1.1459e-14
5512.8900	1.7692e-12	1.0471e-14
5514.1400	1.7883e-12	1.0504e-14
5515.3900	1.8014e-12	1.1910e-14
5516.6400	1.8065e-12	1.1258e-14
5517.8900	1.8068e-12	8.3567e-15
5519.1400	1.8057e-12	1.0098e-14
5520.3900	1.8046e-12	1.0214e-14
5521.6400	1.8003e-12	1.0655e-14
5522.8900	1.7987e-12	1.0546e-14
5524.1400	1.7922e-12	1.0909e-14
5525.3900	1.7657e-12	9.9500e-15
5526.6400	1.7112e-12	1.0843e-14
5527.8900	1.6897e-12	1.1840e-14
5529.1400	1.7487e-12	8.3364e-15
5530.3900	1.7936e-12	8.8236e-15
5531.6400	1.7943e-12	9.9470e-15
5532.8900	1.7836e-12	9.4115e-15
5534.1400	1.7675e-12	1.0251e-14
5535.3900	1.7754e-12	9.8825e-15
5536.6400	1.7904e-12	9.0411e-15
5537.8900	1.7922e-12	9.0220e-15
5539.1400	1.7920e-12	9.9234e-15
5540.3900	1.7938e-12	9.7717e-15
5541.6400	1.7836e-12	9.4980e-15
5542.8900	1.7755e-12	8.8593e-15
5544.1400	1.7770e-12	8.2024e-15
5545.3900	1.7820e-12	9.2690e-15
5546.6400	1.7833e-12	1.0837e-14
5547.8900	1.7872e-12	1.0471e-14
5549.1400	1.7882e-12	9.9025e-15
5550.3900	1.7875e-12	8.7293e-15
5551.6400	1.7817e-12	9.6893e-15
5552.8900	1.7733e-12	1.0364e-14
5554.1400	1.7653e-12	1.0116e-14
5555.3900	1.7719e-12	8.2695e-15
5556.6400	1.7787e-12	8.6078e-15
5557.8900	1.7780e-12	9.1791e-15
5559.1400	1.7748e-12	1.0472e-14
5560.3900	1.7730e-12	1.0500e-14
5561.6400	1.7634e-12	9.7953e-15
5562.8900	1.7552e-12	8.9280e-15
5564.1400	1.7514e-12	1.1155e-14
5565.3900	1.7527e-12	1.0870e-14
5566.6400	1.7582e-12	8.9898e-15
5567.8900	1.7426e-12	1.0439e-14
5569.1400	1.7308e-12	1.0393e-14
5570.3900	1.7410e-12	1.0245e-14
5571.6400	1.7215e-12	1.1050e-14
5572.8900	1.7223e-12	9.2832e-15
5574.1400	1.7451e-12	1.1069e-14
5575.3900	1.7383e-12	8.5943e-15
5576.6400	1.7496e-12	9.0819e-15
5577.8900	1.7629e-12	8.4427e-15
5579.1400	1.7630e-12	1.0330e-14
5580.3900	1.7461e-12	7.1722e-15
5581.6400	1.7379e-12	7.0924e-15
5582.8900	1.7538e-12	8.8353e-15
5584.1400	1.7526e-12	7.9139e-15
5585.3900	1.7091e-12	7.0758e-15
5586.6400	1.6732e-12	7.6052e-15
5587.8900	1.6642e-12	8.3314e-15
5589.1400	1.6845e-12	7.9252e-15
5590.3900	1.7263e-12	8.9162e-15
5591.6400	1.7403e-12	8.7340e-15
5592.8900	1.7127e-12	8.4092e-15
5594.1400	1.6991e-12	8.1312e-15
5595.3900	1.7316e-12	8.4394e-15
5596.6400	1.7244e-12	8.4891e-15
5597.8900	1.6960e-12	8.5278e-15
5599.1400	1.7081e-12	8.1328e-15
5600.3900	1.7029e-12	6.8418e-15
5601.6400	1.6734e-12	8.2316e-15
5602.8900	1.6943e-12	8.8825e-15
5604.1400	1.7407e-12	6.8671e-15
5605.3900	1.7554e-12	7.2947e-15
5606.6400	1.7547e-12	7.3743e-15
5607.8900	1.7545e-12	8.2064e-15
5609.1400	1.7520e-12	8.6609e-15
5610.3900	1.7533e-12	8.0044e-15
5611.6400	1.7523e-12	9.4992e-15
5612.8900	1.7374e-12	6.5167e-15
5614.1400	1.6821e-12	9.0380e-15
5615.3900	1.6689e-12	8.8443e-15
5616.6400	1.7170e-12	6.4176e-15
5617.8900	1.7388e-12	8.6127e-15
5619.1400	1.7410e-12	7.1351e-15
5620.3900	1.7428e-12	6.6744e-15
5621.6400	1.7406e-12	7.0166e-15
5622.8900	1.7137e-12	7.3995e-15
5624.1400	1.6995e-12	8.2472e-15
5625.3900	1.7221e-12	7.0341e-15
5626.6400	1.7399e-12	7.1874e-15
5627.8900	1.7413e-12	8.0359e-15
5629.1400	1.7442e-12	7.3422e-15
5630.3900	1.7439e-12	6.9234e-15
5631.6400	1.7391e-12	7.8238e-15
5632.8900	1.7334e-12	8.3172e-15
5634.1400	1.7305e-12	8.5198e-15
5635.3900	1.7291e-12	7.1713e-15
5636.6400	1.7207e-12	7.3152e-15
5637.8900	1.7185e-12	7.1057e-15
5639.1400	1.7250e-12	6.7404e-15
5640.3900	1.7198e-12	7.9641e-15
5641.6400	1.7221e-12	7.5925e-15
5642.8900	1.7287e-12	7.1843e-15
5644.1400	1.7275e-12	6.8954e-15
5645.3900	1.7298e-12	6.1795e-15
5646.6400	1.7325e-12	8.3415e-15
5647.8900	1.7303e-12	8.2976e-15
5649.1400	1.7266e-12	6.9629e-15
5650.3900	1.7277e-12	7.9257e-15
5651.6400	1.7292e-12	7.5764e-15
5652.8900	1.7237e-12	9.6615e-15
5654.1400	1.7119e-12	6.9116e-15
5655.3900	1.7086e-12	6.4451e-15
5656.6400	1.6859e-12	8.6270e-15
5657.8900	1.6596e-12	6.8552e-15
5659.1400	1.6857e-12	6.3104e-15
5660.3900	1.7083e-12	6.8105e-15
5661.6400	1.6945e-12	7.1325e-15
5662.8900	1.7031e-12	5.8752e-15
5664.1400	1.7181e-12	7.6536e-15
5665.3900	1.7160e-12	7.2083e-15
5666.6400	1.7125e-12	7.7146e-15
5667.8900	1.7118e-12	6.3777e-15
5669.1400	1.7155e-12	5.7206e-15
5670.3900	1.7233e-12	6.8931e-15
5671.6400	1.7277e-12	6.2468e-15
5672.8900	1.7263e-12	6.8042e-15
5674.1400	1.7164e-12	6.8727e-15
5675.3900	1.7146e-12	7.0126e-15
5676.6400	1.7233e-12	7.7260e-15
5677.8900	1.7202e-12	7.5129e-15
5679.1400	1.7200e-12	6.7241e-15
5680.3900	1.7158e-12	6.6944e-15
5681.6400	1.7021e-12	6.3781e-15
5682.8900	1.6938e-12	5.4955e-15
5684.1400	1.6984e-12	7.9798e-15
5685.3900	1.7015e-12	7.7108e-15
5686.6400	1.6932e-12	7.0078e-15
5687.8900	1.6936e-12	7.2992e-15
5689.1400	1.7065e-12	7.9235e-15
5690.3900	1.7118e-12	7.9259e-15
5691.6400	1.7188e-12	8.4793e-15
5692.8900	1.7171e-12	7.5940e-15
5694.1400	1.7165e-12	7.6806e-15
5695.3900	1.7206e-12	7.9727e-15
5696.6400	1.7215e-12	6.3846e-15
5697.8900	1.7188e-12	7.0161e-15
5699.1400	1.7130e-12	6.6124e-15
5700.3900	1.6988e-12	6.9771e-15
5701.6400	1.7006e-12	6.4464e-15
5702.8900	1.7143e-12	6.5284e-15
5704.1400	1.7089e-12	4.8438e-15
5705.3900	1.6989e-12	6.1745e-15
5706.6400	1.6895e-12	5.7283e-15
5707.8900	1.6626e-12	8.0665e-15
5709.1400	1.6484e-12	5.1506e-15
5710.3900	1.6569e-12	5.9563e-15
5711.6400	1.6810e-12	6.5235e-15
5712.8900	1.7050e-12	6.5706e-15
5714.1400	1.7077e-12	8.0043e-15
5715.3900	1.7098e-12	7.4715e-15
5716.6400	1.7091e-12	7.0681e-15
5717.8900	1.7099e-12	6.9714e-15
5719.1400	1.7168e-12	6.3104e-15
5720.3900	1.7161e-12	6.4321e-15
5721.6400	1.7178e-12	5.9627e-15
5722.8900	1.7168e-12	5.3679e-15
5724.1400	1.7164e-12	5.3182e-15
5725.3900	1.7142e-12	5.9491e-15
5726.6400	1.7142e-12	6.1358e-15
5727.8900	1.7144e-12	6.7784e-15
5729.1400	1.7147e-12	7.2452e-15
5730.3900	1.7073e-12	5.7040e-15
5731.6400	1.7054e-12	4.9632e-15
5732.8900	1.7092e-12	6.2009e-15
5734.1400	1.7116e-12	5.7225e-15
5735.3900	1.7103e-12	5.9108e-15
5736.6400	1.7091e-12	6.2084e-15
5737.8900	1.7101e-12	4.4550e-15
5739.1400	1.7093e-12	5.4296e-15
5740.3900	1.7071e-12	5.2116e-15
5741.6400	1.7072e-12	6.2138e-15
5742.8900	1.7075e-12	5.7148e-15
5744.1400	1.7086e-12	6.2235e-15
5745.3900	1.7056e-12	4.1377e-15
5746.6400	1.6975e-12	6.4278e-15
5747.8900	1.6969e-12	4.6196e-15
5749.1400	1.7049e-12	4.8101e-15
5750.3900	1.6998e-12	5.8928e-15
5751.6400	1.6834e-12	6.0882e-15
5752.8900	1.6714e-12	5.7842e-15
5754.1400	1.6810e-12	4.6411e-15
5755.3900	1.6950e-12	5.7246e-15
5756.6400	1.7022e-12	5.7314e-15
5757.8900	1.7025e-12	4.9393e-15
5759.1400	1.6990e-12	5.6029e-15
5760.3900	1.6892e-12	6.1082e-15
5761.6400	1.6727e-12	5.1672e-15
5762.8900	1.6757e-12	4.4360e-15
5764.1400	1.6956e-12	4.0017e-15
5765.3900	1.7016e-12	5.5392e-15
5766.6400	1.7013e-12	4.7318e-15
5767.8900	1.7010e-12	6.5364e-15
5769.1400	1.7008e-12	5.6065e-15
5770.3900	1.6948e-12	4.4422e-15
5771.6400	1.6888e-12	5.0000e-15
5772.8900	1.6899e-12	4.9366e-15
5774.1400	1.6895e-12	5.7847e-15
5775.3900	1.6914e-12	5.3836e-15
5776.6400	1.6959e-12	6.2177e-15
5777.8900	1.6929e-12	4.3373e-15
5779.1400	1.6872e-12	5.6639e-15
5780.3900	1.6805e-12	4.7299e-15
5781.6400	1.6806e-12	5.2226e-15
5782.8900	1.6798e-12	5.7107e-15
5784.1400	1.6769e-12	5.9453e-15
5785.3900	1.6783e-12	4.4397e-15
5786.6400	1.6828e-12	4.6341e-15
5787.8900	1.6835e-12	5.0013e-15
5789.1400	1.6782e-12	3.5028e-15
5790.3900	1.6723e-12	4.4363e-15
5791.6400	1.6728e-12	4.6161e-15
5792.8900	1.6740e-12	4.2066e-15
5794.1400	1.6809e-12	3.6009e-15
5795.3900	1.6812e-12	4.8596e-15
5796.6400	1.6743e-12	4.4801e-15
5797.8900	1.6750e-12	5.8756e-15
5799.1400	1.6794e-12	5.8460e-15
5800.3900	1.6805e-12	5.4403e-15
5801.6400	1.6798e-12	5.4400e-15
5802.8900	1.6754e-12	5.6482e-15
5804.1400	1.6701e-12	3.8173e-15
5805.3900	1.6671e-12	5.3440e-15
5806.6400	1.6696e-12	3.5130e-15
5807.8900	1.6721e-12	4.2410e-15
5809.1400	1.6703e-12	4.3160e-15
5810.3900	1.6723e-12	3.8027e-15
5811.6400	1.6717e-12	5.1807e-15
5812.8900	1.6720e-12	4.8654e-15
5814.1400	1.6664e-12	4.2050e-15
5815.3900	1.6601e-12	4.8508e-15
5816.6400	1.6617e-12	6.3978e-15
5817.8900	1.6678e-12	5.2467e-15
5819.1400	1.6674e-12	4.5447e-15
5820.3900	1.6663e-12	5.7016e-15
5821.6400	1.6659e-12	5.5801e-15
5822.8900	1.6647e-12	3.9440e-15
5824.1400	1.6666e-12	3.7170e-15
5825.3900	1.6637e-12	4.1536e-15
5826.6400	1.6640e-12	5.0547e-15
5827.8900	1.6634e-12	5.5693e-15
5829.1400	1.6645e-12	3.9760e-15
5830.3900	1.6613e-12	5.4428e-15
5831.6400	1.6621e-12	6.4802e-15
5832.8900	1.6614e-12	4.7129e-15
5834.1400	1.6583e-12	4.4001e-15
5835.3900	1.6582e-12	3.9517e-15
5836.6400	1.6579e-12	3.0683e-15
5837.8900	1.6574e-12	3.8415e-15
5839.1400	1.6587e-12	3.2692e-15
5840.3900	1.6588e-12	4.3047e-15
5841.6400	1.6585e-12	3.8505e-15
5842.8900	1.6577e-12	4.2153e-15
5844.1400	1.6562e-12	5.4964e-15
5845.3900	1.6539e-12	3.7251e-15
5846.6400	1.6524e-12	3.8165e-15
5847.8900	1.6529e-12	3.9293e-15
5849.1400	1.6549e-12	4.0355e-15
5850.3900	1.6518e-12	5.7324e-15
5851.6400	1.6401e-12	5.0846e-15
5852.8900	1.6298e-12	4.3276e-15
5854.1400	1.6356e-12	4.7065e-15
5855.3900	1.6256e-12	4.7285e-15
5856.6400	1.6001e-12	5.4517e-15
5857.8900	1.6104e-12	3.0216e-15
5859.1400	1.6354e-12	2.6246e-15
5860.3900	1.6393e-12	4.1818e-15
5861.6400	1.6337e-12	4.9326e-15
5862.8900	1.6413e-12	3.2312e-15
5864.1400	1.6486e-12	4.4330e-15
5865.3900	1.6431e-12	4.4552e-15
5866.6400	1.6421e-12	3.2518e-15
5867.8900	1.6453e-12	3.3271e-15
5869.1400	1.6471e-12	4.2238e-15
5870.3900	1.6488e-12	2.9629e-15
5871.6400	1.6480e-12	4.8206e-15
5872.8900	1.6474e-12	4.1093e-15
5874.1400	1.6486e-12	4.4164e-15
5875.3900	1.6486e-12	4.2747e-15
5876.6400	1.6476e-12	2.8914e-15
5877.8900	1.6482e-12	3.5776e-15
5879.1400	1.6482e-12	3.7183e-15
5880.3900	1.6455e-12	2.5707e-15
5881.6400	1.6466e-12	3.7697e-15
5882.8900	1.6410e-12	3.3881e-15
5884.1400	1.6429e-12	2.4422e-15
5885.3900	1.6483e-12	3.3672e-15
5886.6400	1.6389e-12	4.9657e-15
5887.8900	1.5679e-12	6.9844e-15
5889.1400	1.4772e-12	5.0969e-15
5890.3900	1.5283e-12	3.6521e-15
5891.6400	1.6157e-12	3.6763e-15
5892.8900	1.6209e-12	3.6729e-15
5894.1400	1.5563e-12	5.2944e-15
5895.3900	1.5037e-12	3.8383e-15
5896.6400	1.5688e-12	2.5088e-15
5897.8900	1.6302e-12	3.5323e-15
5899.1400	1.6366e-12	2.4015e-15
5900.3900	1.6414e-12	3.1830e-15
5901.6400	1.6419e-12	2.2471e-15
5902.8900	1.6420e-12	3.0061e-15
5904.1400	1.6381e-12	4.9494e-15
5905.3900	1.6359e-12	3.3266e-15
5906.6400	1.6411e-12	2.7335e-15
5907.8900	1.6420e-12	3.4813e-15
5909.1400	1.6403e-12	3.5549e-15
5910.3900	1.6413e-12	3.4024e-15
5911.6400	1.6376e-12	4.0510e-15
5912.8900	1.6204e-12	3.0033e-15
5914.1400	1.6178e-12	2.6857e-15
5915.3900	1.6305e-12	4.2548e-15
5916.6400	1.6361e-12	4.4896e-15
5917.8900	1.6409e-12	3.0035e-15
5919.1400	1.6392e-12	3.4542e-15
5920.3900	1.6375e-12	3.0340e-15
5921.6400	1.6374e-12	4.9822e-15
5922.8900	1.6390e-12	3.6133e-15
5924.1400	1.6373e-12	3.0016e-15
5925.3900	1.6361e-12	3.0057e-15
5926.6400	1.6334e-12	2.0280e-15
5927.8900	1.6270e-12	3.3498e-15
5929.1400	1.6146e-12	3.4601e-15
5930.3900	1.6194e-12	3.8982e-15
5931.6400	1.6324e-12	3.5827e-15
5932.8900	1.6279e-12	3.5975e-15
5934.1400	1.6230e-12	2.8908e-15
5935.3900	1.6282e-12	5.1214e-15
5936.6400	1.6328e-12	1.9750e-15
5937.8900	1.6324e-12	3.3497e-15
5939.1400	1.6316e-12	2.8480e-15
5940.3900	1.6309e-12	3.8443e-15
5941.6400	1.6274e-12	3.0501e-15
5942.8900	1.6251e-12	3.5133e-15
5944.1400	1.6286e-12	2.9303e-15
5945.3900	1.6291e-12	1.8894e-15
5946.6400	1.6146e-12	3.7335e-15
5947.8900	1.6014e-12	3.5060e-15
5949.1400	1.6119e-12	2.8065e-15
5950.3900	1.6210e-12	2.1009e-15
5951.6400	1.6135e-12	2.8155e-15
5952.8900	1.6138e-12	3.2906e-15
5954.1400	1.6214e-12	3.1402e-15
5955.3900	1.6200e-12	3.8742e-15
5956.6400	1.6187e-12	2.1892e-15
5957.8900	1.6209e-12	3.1530e-15
5959.1400	1.6197e-12	4.1697e-15
5960.3900	1.6203e-12	4.1185e-15
5961.6400	1.6204e-12	2.8184e-15
5962.8900	1.6208e-12	3.4957e-15
5964.1400	1.6200e-12	2.6004e-15
5965.3900	1.6182e-12	3.0472e-15
5966.6400	1.6204e-12	4.3036e-15
5967.8900	1.6187e-12	4.2403e-15
5969.1400	1.6176e-12	3.0043e-15
5970.3900	1.6181e-12	2.3179e-15
5971.6400	1.6171e-12	2.9243e-15
5972.8900	1.6156e-12	3.4637e-15
5974.1400	1.6120e-12	3.8731e-15
5975.3900	1.6068e-12	1.7272e-15
5976.6400	1.6050e-12	2.6151e-15
5977.8900	1.6085e-12	3.4860e-15
5979.1400	1.6130e-12	1.8489e-15
5980.3900	1.6146e-12	1.0700e-15
5981.6400	1.6090e-12	1.6607e-15
5982.8900	1.5952e-12	2.4939e-15
5984.1400	1.5899e-12	2.6466e-15
5985.3900	1.5978e-12	3.5469e-15
5986.6400	1.6032e-12	2.6846e-15
5987.8900	1.6094e-12	1.7215e-15
5989.1400	1.6089e-12	1.9159e-15
5990.3900	1.6042e-12	3.4936e-15
5991.6400	1.6069e-12	3.2421e-15
5992.8900	1.6097e-12	2.2075e-15
5994.1400	1.6096e-12	2.1786e-15
5995.3900	1.6081e-12	3.6365e-15
5996.6400	1.6014e-12	3.8941e-15
5997.8900	1.6027e-12	3.8545e-15
5999.1400	1.6080e-12	2.9994e-15
6000.3900	1.6055e-12	1.9039e-15
6001.6400	1.5963e-12	3.8977e-15
6002.8900	1.5945e-12	3.2717e-15
6004.1400	1.6029e-12	3.4778e-15
6005.3900	1.6019e-12	3.5731e-15
6006.6400	1.5896e-12	3.1609e-15
6007.8900	1.5870e-12	4.1283e-15
6009.1400	1.5964e-12	2.4823e-15
6010.3900	1.6035e-12	1.5920e-15
6011.6400	1.6019e-12	2.7042e-15
6012.8900	1.6005e-12	2.4547e-15
6014.1400	1.6006e-12	2.9585e-15
6015.3900	1.6001e-12	4.2946e-15
6016.6400	1.5987e-12	2.2319e-15
6017.8900	1.5953e-12	3.3543e-15
6019.1400	1.5812e-12	2.4146e-15
6020.3900	1.5792e-12	3.5633e-15
6021.6400	1.5856e-12	2.8252e-15
6022.8900	1.5778e-12	2.8546e-15
6024.1400	1.5809e-12	2.8813e-15
6025.3900	1.5922e-12	4.4836e-15
6026.6400	1.5931e-12	3.5847e-15
6027.8900	1.5980e-12	2.8317e-15
6029.1400	1.6001e-12	2.5583e-15
6030.3900	1.6007e-12	2.6208e-15
6031.6400	1.6025e-12	2.7336e-15
6032.8900	1.6015e-12	3.9844e-15
6034.1400	1.6013e-12	3.8431e-15
6035.3900	1.6024e-12	3.6397e-15
6036.6400	1.6035e-12	3.6620e-15
6037.8900	1.6016e-12	3.1511e-15
6039.1400	1.6000e-12	4.2361e-15
6040.3900	1.5964e-12	2.5977e-15
6041.6400	1.5957e-12	3.7490e-15
6042.8900	1.5970e-12	2.6170e-15
6044.1400	1.5992e-12	2.1461e-15
6045.3900	1.5989e-12	2.0624e-15
6046.6400	1.6010e-12	3.3609e-15
6047.8900	1.5990e-12	2.9189e-15
6049.1400	1.5995e-12	2.6967e-15
6050.3900	1.5990e-12	2.9067e-15
6051.6400	1.5972e-12	2.6514e-15
6052.8900	1.5948e-12	3.1164e-15
6054.1400	1.5899e-12	3.8722e-15
6055.3900	1.5843e-12	2.4538e-15
6056.6400	1.5917e-12	2.1739e-15
6057.8900	1.5971e-12	2.4480e-15
6059.1400	1.5965e-12	2.9978e-15
6060.3900	1.5951e-12	3.4354e-15
6061.6400	1.5927e-12	5.3390e-15
6062.8900	1.5885e-12	3.6644e-15
6064.1400	1.5659e-12	2.9915e-15
6065.3900	1.5641e-12	2.6419e-15
6066.6400	1.5862e-12	3.4877e-15
6067.8900	1.5931e-12	4.1310e-15
6069.1400	1.5940e-12	4.7259e-15
6070.3900	1.5935e-12	4.8629e-15
6071.6400	1.5925e-12	5.1708e-15
6072.8900	1.5936e-12	3.9742e-15
6074.1400	1.5932e-12	4.2043e-15
6075.3900	1.5908e-12	3.6848e-15
6076.6400	1.5804e-12	2.7752e-15
6077.8900	1.5728e-12	2.7281e-15
6079.1400	1.5791e-12	1.9724e-15
6080.3900	1.5841e-12	4.5651e-15
6081.6400	1.5839e-12	3.2988e-15
6082.8900	1.5807e-12	2.2298e-15
6084.1400	1.5790e-12	3.4022e-15
6085.3900	1.5777e-12	4.1848e-15
6086.6400	1.5789e-12	3.4967e-15
6087.8900	1.5787e-12	3.4078e-15
6089.1400	1.5772e-12	3.7347e-15
6090.3900	1.5739e-12	3.3069e-15
6091.6400	1.5747e-12	2.3796e-15
6092.8900	1.5766e-12	2.2712e-15
6094.1400	1.5774e-12	2.5922e-15
6095.3900	1.5766e-12	2.7389e-15
6096.6400	1.5739e-12	3.9768e-15
6097.8900	1.5753e-12	2.6338e-15
6099.1400	1.5731e-12	2.9187e-15
6100.3900	1.5518e-12	3.5563e-15
6101.6400	1.5131e-12	1.7172e-15
6102.8900	1.5261e-12	2.4652e-15
6104.1400	1.5635e-12	2.2193e-15
6105.3900	1.5677e-12	1.9538e-15
6106.6400	1.5638e-12	2.9449e-15
6107.8900	1.5629e-12	4.6896e-15
6109.1400	1.5675e-12	4.2759e-15
6110.3900	1.5678e-12	3.3014e-15
6111.6400	1.5666e-12	2.6346e-15
6112.8900	1.5656e-12	4.5358e-15
6114.1400	1.5662e-12	3.6123e-15
6115.3900	1.5632e-12	2.8220e-15
6116.6400	1.5653e-12	3.2402e-15
6117.8900	1.5674e-12	3.6558e-15
6119.1400	1.5615e-12	2.3131e-15
6120.3900	1.5266e-12	3.0111e-15
6121.6400	1.5007e-12	3.5269e-15
6122.8900	1.5320e-12	3.8323e-15
6124.1400	1.5565e-12	4.1188e-15
6125.3900	1.5589e-12	4.2991e-15
6126.6400	1.5595e-12	3.4904e-15
6127.8900	1.5559e-12	4.4602e-15
6129.1400	1.5580e-12	3.5061e-15
6130.3900	1.5556e-12	3.0575e-15
6131.6400	1.5575e-12	3.7510e-15
6132.8900	1.5601e-12	2.2953e-15
6134.1400	1.5499e-12	1.7455e-15
6135.3900	1.5050e-12	2.0300e-15
6136.6400	1.4807e-12	3.0763e-15
6137.8900	1.5194e-12	3.4269e-15
6139.1400	1.5451e-12	2.5666e-15
6140.3900	1.5203e-12	2.7477e-15
6141.6400	1.5158e-12	2.2804e-15
6142.8900	1.5460e-12	2.8084e-15
6144.1400	1.5543e-12	2.7121e-15
6145.3900	1.5549e-12	3.3950e-15
6146.6400	1.5493e-12	2.9870e-15
6147.8900	1.5460e-12	2.7773e-15
6149.1400	1.5522e-12	2.9260e-15
6150.3900	1.5540e-12	4.0216e-15
6151.6400	1.5555e-12	4.1625e-15
6152.8900	1.5504e-12	3.0753e-15
6154.1400	1.5387e-12	3.7112e-15
6155.3900	1.5409e-12	2.5587e-15
6156.6400	1.5463e-12	1.8616e-15
6157.8900	1.5486e-12	3.4335e-15
6159.1400	1.5411e-12	3.6149e-15
6160.3900	1.4939e-12	4.1623e-15
6161.6400	1.4649e-12	4.3650e-15
6162.8900	1.5049e-12	4.1118e-15
6164.1400	1.5381e-12	3.8606e-15
6165.3900	1.5382e-12	2.6137e-15
6166.6400	1.5355e-12	3.4083e-15
6167.8900	1.5075e-12	2.1122e-15
6169.1400	1.4949e-12	3.1691e-15
6170.3900	1.5276e-12	3.4261e-15
6171.6400	1.5473e-12	2.4690e-15
6172.8900	1.5457e-12	3.6025e-15
6174.1400	1.5457e-12	3.9715e-15
6175.3900	1.5425e-12	4.6393e-15
6176.6400	1.5461e-12	4.9383e-15
6177.8900	1.5521e-12	3.2628e-15
6179.1400	1.5500e-12	4.2283e-15
6180.3900	1.5501e-12	2.7011e-15
6181.6400	1.5539e-12	2.7309e-15
6182.8900	1.5547e-12	4.5153e-15
6184.1400	1.5532e-12	2.5264e-15
6185.3900	1.5506e-12	3.9351e-15
6186.6400	1.5478e-12	2.7749e-15
6187.8900	1.5487e-12	3.8917e-15
6189.1400	1.5366e-12	3.0504e-15
6190.3900	1.5074e-12	3.5327e-15
6191.6400	1.5151e-12	3.3633e-15
6192.8900	1.5444e-12	3.1436e-15
6194.1400	1.5488e-12	3.2198e-15
6195.3900	1.5507e-12	4.4863e-15
6196.6400	1.5526e-12	4.3044e-15
6197.8900	1.5496e-12	3.0221e-15
6199.1400	1.5425e-12	4.3512e-15
6200.3900	1.5434e-12	4.5820e-15
6201.6400	1.5504e-12	4.2341e-15
6202.8900	1.5521e-12	3.1656e-15
6204.1400	1.5516e-12	3.2063e-15
6205.3900	1.5516e-12	2.3205e-15
6206.6400	1.5502e-12	2.9985e-15
6207.8900	1.5506e-12	4.4140e-15
6209.1400	1.5496e-12	2.5814e-15
6210.3900	1.5491e-12	3.8889e-15
6211.6400	1.5383e-12	3.7437e-15
6212.8900	1.5279e-12	2.2817e-15
6214.1400	1.5310e-12	4.3314e-15
6215.3900	1.5379e-12	3.0124e-15
6216.6400	1.5411e-12	3.0852e-15
6217.8900	1.5291e-12	3.4186e-15
6219.1400	1.5236e-12	3.0836e-15
6220.3900	1.5364e-12	3.4235e-15
6221.6400	1.5429e-12	5.1836e-15
6222.8900	1.5444e-12	3.4773e-15
6224.1400	1.5424e-12	3.6433e-15
6225.3900	1.5429e-12	4.3294e-15
6226.6400	1.5413e-12	4.8512e-15
6227.8900	1.5357e-12	2.2717e-15
6229.1400	1.5060e-12	4.8172e-15
6230.3900	1.4932e-12	3.0051e-15
6231.6400	1.5158e-12	2.6851e-15
6232.8900	1.5327e-12	4.0115e-15
6234.1400	1.5387e-12	3.6666e-15
6235.3900	1.5335e-12	3.9109e-15
6236.6400	1.5223e-12	4.8393e-15
6237.8900	1.5213e-12	5.0445e-15
6239.1400	1.5305e-12	4.8711e-15
6240.3900	1.5350e-12	4.2325e-15
6241.6400	1.5324e-12	3.8722e-15
6242.8900	1.5209e-12	3.7273e-15
6244.1400	1.5070e-12	3.4587e-15
6245.3900	1.4948e-12	3.1175e-15
6246.6400	1.5010e-12	3.1159e-15
6247.8900	1.5243e-12	4.8933e-15
6249.1400	1.5332e-12	4.2509e-15
6250.3900	1.5187e-12	3.9298e-15
6251.6400	1.4942e-12	3.6380e-15
6252.8900	1.4850e-12	2.6432e-15
6254.1400	1.4975e-12	3.2739e-15
6255.3900	1.5049e-12	3.2620e-15
6256.6400	1.5061e-12	3.8177e-15
6257.8900	1.5107e-12	3.4389e-15
6259.1400	1.5173e-12	3.5145e-15
6260.3900	1.5221e-12	3.5982e-15
6261.6400	1.5260e-12	5.4060e-15
6262.8900	1.5242e-12	2.8999e-15
6264.1400	1.5130e-12	3.4763e-15
6265.3900	1.5164e-12	3.2652e-15
6266.6400	1.5260e-12	3.6210e-15
6267.8900	1.5252e-12	2.9902e-15
6269.1400	1.5217e-12	3.7005e-15
6270.3900	1.5215e-12	4.2939e-15
6271.6400	1.5242e-12	3.2645e-15
6272.8900	1.5250e-12	4.5940e-15
6274.1400	1.5258e-12	3.7560e-15
6275.3900	1.5348e-12	3.5994e-15
6276.6400	1.5388e-12	4.9520e-15
6277.8900	1.5154e-12	4.2051e-15
6279.1400	1.4920e-12	4.9099e-15
6280.3900	1.5024e-12	4.0773e-15
6281.6400	1.5137e-12	2.5398e-15
6282.8900	1.5124e-12	4.8178e-15
6284.1400	1.5146e-12	3.8582e-15
6285.3900	1.5146e-12	4.3565e-15
6286.6400	1.5177e-12	4.5721e-15
6287.8900	1.5217e-12	3.6444e-15
6289.1400	1.5166e-12	4.8684e-15
6290.3900	1.5108e-12	3.9228e-15
6291.6400	1.5127e-12	3.1025e-15
6292.8900	1.5141e-12	5.3898e-15
6294.1400	1.5138e-12	4.5296e-15
6295.3900	1.5126e-12	3.8680e-15
6296.6400	1.4962e-12	4.1562e-15
6297.8900	1.5000e-12	4.0759e-15
6299.1400	1.4931e-12	4.7188e-15
6300.3900	1.4720e-12	4.1622e-15
6301.6400	1.4775e-12	3.0597e-15
6302.8900	1.4933e-12	4.6428e-15
6304.1400	1.5039e-12	5.2036e-15
6305.3900	1.5118e-12	3.9266e-15
6306.6400	1.5051e-12	5.2450e-15
6307.8900	1.5004e-12	4.7620e-15
6309.1400	1.5041e-12	4.4866e-15
6310.3900	1.5022e-12	3.0715e-15
6311.6400	1.4979e-12	4.7676e-15
6312.8900	1.4970e-12	5.3442e-15
6314.1400	1.4872e-12	4.4387e-15
6315.3900	1.4844e-12	4.5276e-15
6316.6400	1.4721e-12	4.5648e-15
6317.8900	1.4672e-12	3.8429e-15
6319.1400	1.4859e-12	3.7774e-15
6320.3900	1.4917e-12	3.9238e-15
6321.6400	1.4886e-12	4.1300e-15
6322.8900	1.4943e-12	4.1943e-15
6324.1400	1.5011e-12	4.5619e-15
6325.3900	1.4997e-12	5.5674e-15
6326.6400	1.4966e-12	4.8444e-15
6327.8900	1.4984e-12	4.9595e-15
6329.1400	1.4968e-12	4.5978e-15
6330.3900	1.4943e-12	5.3707e-15
6331.6400	1.4962e-12	4.5561e-15
6332.8900	1.4909e-12	4.8254e-15
6334.1400	1.4692e-12	4.4596e-15
6335.3900	1.4583e-12	4.0630e-15
6336.6400	1.4691e-12	5.1364e-15
6337.8900	1.4828e-12	5.1394e-15
6339.1400	1.4906e-12	4.4683e-15
6340.3900	1.4939e-12	4.9127e-15
6341.6400	1.4897e-12	5.9511e-15
6342.8900	1.4833e-12	4.7862e-15
6344.1400	1.4842e-12	5.6250e-15
6345.3900	1.4802e-12	6.2395e-15
6346.6400	1.4786e-12	4.0895e-15
6347.8900	1.4872e-12	4.6060e-15
6349.1400	1.4903e-12	4.4746e-15
6350.3900	1.4913e-12	5.4527e-15
6351.6400	1.4906e-12	4.7347e-15
6352.8900	1.4859e-12	3.9984e-15
6354.1400	1.4816e-12	4.1320e-15
6355.3900	1.4843e-12	4.3473e-15
6356.6400	1.4844e-12	4.8680e-15
6357.8900	1.4795e-12	4.6159e-15
6359.1400	1.4787e-12	5.8343e-15
6360.3900	1.4775e-12	4.5934e-15
6361.6400	1.4741e-12	3.8625e-15
6362.8900	1.4779e-12	4.6169e-15
6364.1400	1.4819e-12	5.4453e-15
6365.3900	1.4841e-12	5.5192e-15
6366.6400	1.4852e-12	4.4395e-15
6367.8900	1.4837e-12	3.8922e-15
6369.1400	1.4791e-12	4.8250e-15
6370.3900	1.4758e-12	5.0180e-15
6371.6400	1.4790e-12	5.6139e-15
6372.8900	1.4837e-12	4.9099e-15
6374.1400	1.4834e-12	5.0537e-15
6375.3900	1.4824e-12	5.0771e-15
6376.6400	1.4815e-12	5.1116e-15
6377.8900	1.4798e-12	5.4779e-15
6379.1400	1.4763e-12	4.6401e-15
6380.3900	1.4767e-12	4.1835e-15
6381.6400	1.4786e-12	5.0501e-15
6382.8900	1.4781e-12	5.0323e-15
6384.1400	1.4773e-12	5.3506e-15
6385.3900	1.4781e-12	5.9134e-15
6386.6400	1.4775e-12	5.6231e-15
6387.8900	1.4773e-12	5.4357e-15
6389.1400	1.4764e-12	5.5829e-15
6390.3900	1.4735e-12	5.5960e-15
6391.6400	1.4538e-12	4.9067e-15
6392.8900	1.4346e-12	4.2757e-15
6394.1400	1.4528e-12	5.6054e-15
6395.3900	1.4721e-12	4.5668e-15
6396.6400	1.4716e-12	4.6415e-15
6397.8900	1.4509e-12	5.2268e-15
6399.1400	1.4241e-12	5.6523e-15
6400.3900	1.4406e-12	5.7595e-15
6401.6400	1.4663e-12	5.8697e-15
6402.8900	1.4691e-12	3.5571e-15
6404.1400	1.4667e-12	5.0959e-15
6405.3900	1.4595e-12	5.7195e-15
6406.6400	1.4440e-12	4.8550e-15
6407.8900	1.4465e-12	4.1257e-15
6409.1400	1.4539e-12	4.2701e-15
6410.3900	1.4361e-12	4.1373e-15
6411.6400	1.4384e-12	5.5024e-15
6412.8900	1.4549e-12	5.2297e-15
6414.1400	1.4551e-12	5.6423e-15
6415.3900	1.4527e-12	5.0462e-15
6416.6400	1.4541e-12	5.1614e-15
6417.8900	1.4519e-12	4.4472e-15
6419.1400	1.4358e-12	4.1358e-15
6420.3900	1.4245e-12	3.9343e-15
6421.6400	1.4393e-12	6.4059e-15
6422.8900	1.4574e-12	4.5083e-15
6424.1400	1.4582e-12	4.1493e-15
6425.3900	1.4588e-12	4.2878e-15
6426.6400	1.4575e-12	4.4974e-15
6427.8900	1.4542e-12	5.6308e-15
6429.1400	1.4350e-12	5.6665e-15
6430.3900	1.4234e-12	5.2171e-15
6431.6400	1.4365e-12	5.4789e-15
6432.8900	1.4482e-12	5.2738e-15
6434.1400	1.4536e-12	5.3199e-15
6435.3900	1.4536e-12	5.7077e-15
6436.6400	1.4371e-12	4.7037e-15
6437.8900	1.4011e-12	4.2325e-15
6439.1400	1.4089e-12	4.9327e-15
6440.3900	1.4453e-12	4.9844e-15
6441.6400	1.4528e-12	5.2310e-15
6442.8900	1.4523e-12	5.7051e-15
6444.1400	1.4531e-12	4.2458e-15
6445.3900	1.4523e-12	5.2963e-15
6446.6400	1.4483e-12	5.2174e-15
6447.8900	1.4296e-12	5.2548e-15
6449.1400	1.4124e-12	5.2592e-15
6450.3900	1.4310e-12	5.2141e-15
6451.6400	1.4470e-12	5.1472e-15
6452.8900	1.4459e-12	3.6900e-15
6454.1400	1.4326e-12	4.5946e-15
6455.3900	1.4194e-12	4.7867e-15
6456.6400	1.4306e-12	4.8482e-15
6457.8900	1.4453e-12	3.6463e-15
6459.1400	1.4450e-12	4.9006e-15
6460.3900	1.4207e-12	4.9111e-15
6461.6400	1.3859e-12	5.8190e-15
6462.8900	1.4041e-12	4.1972e-15
6464.1400	1.4390e-12	5.3475e-15
6465.3900	1.4434e-12	4.8384e-15
6466.6400	1.4438e-12	4.9106e-15
6467.8900	1.4397e-12	5.5765e-15
6469.1400	1.4346e-12	5.0043e-15
6470.3900	1.4187e-12	6.2723e-15
6471.6400	1.4226e-12	5.8224e-15
6472.8900	1.4377e-12	4.8247e-15
6474.1400	1.4387e-12	6.2844e-15
6475.3900	1.4372e-12	5.6238e-15
6476.6400	1.4387e-12	4.9108e-15
6477.8900	1.4408e-12	5.3455e-15
6479.1400	1.4392e-12	5.2219e-15
6480.3900	1.4329e-12	6.1769e-15
6481.6400	1.4282e-12	5.1698e-15
6482.8900	1.4334e-12	4.7802e-15
6484.1400	1.4361e-12	5.7940e-15
6485.3900	1.4344e-12	5.1566e-15
6486.6400	1.4354e-12	5.1576e-15
6487.8900	1.4356e-12	5.5474e-15
6489.1400	1.4314e-12	5.6879e-15
6490.3900	1.4231e-12	4.4682e-15
6491.6400	1.4038e-12	5.1923e-15
6492.8900	1.3670e-12	4.7606e-15
6494.1400	1.3498e-12	4.8795e-15
6495.3900	1.3592e-12	4.8803e-15
6496.6400	1.3816e-12	5.0871e-15
6497.8900	1.4008e-12	4.3045e-15
6499.1400	1.4039e-12	5.3327e-15
6500.3900	1.4172e-12	5.3482e-15
6501.6400	1.4249e-12	6.6584e-15
6502.8900	1.4254e-12	5.6055e-15
6504.1400	1.4232e-12	6.1503e-15
6505.3900	1.4242e-12	5.4447e-15
6506.6400	1.4232e-12	5.2178e-15
6507.8900	1.4211e-12	5.5867e-15
6509.1400	1.4205e-12	5.6636e-15
6510.3900	1.4199e-12	4.5893e-15
6511.6400	1.4200e-12	5.3009e-15
6512.8900	1.4172e-12	6.6462e-15
6514.1400	1.4104e-12	5.6836e-15
6515.3900	1.4041e-12	6.2731e-15
6516.6400	1.4039e-12	4.5403e-15
6517.8900	1.4043e-12	5.4752e-15
6519.1400	1.4088e-12	5.5894e-15
6520.3900	1.4091e-12	6.1724e-15
6521.6400	1.4096e-12	6.6514e-15
6522.8900	1.4098e-12	6.5451e-15
6524.1400	1.4078e-12	4.6705e-15
6525.3900	1.4005e-12	4.9769e-15
6526.6400	1.3968e-12	4.4202e-15
6527.8900	1.4017e-12	5.2832e-15
6529.1400	1.4030e-12	6.3928e-15
6530.3900	1.4021e-12	5.3100e-15
6531.6400	1.3990e-12	5.6892e-15
6532.8900	1.3958e-12	6.4951e-15
6534.1400	1.3954e-12	5.9957e-15
6535.3900	1.3945e-12	5.3826e-15
6536.6400	1.3933e-12	6.1248e-15
6537.8900	1.3897e-12	5.7430e-15
6539.1400	1.3889e-12	5.4106e-15
6540.3900	1.3853e-12	5.5275e-15
6541.6400	1.3837e-12	4.8514e-15
6542.8900	1.3806e-12	5.5730e-15
6544.1400	1.3660e-12	6.6459e-15
6545.3900	1.3475e-12	5.6519e-15
6546.6400	1.3548e-12	4.8067e-15
6547.8900	1.3618e-12	4.6602e-15
6549.1400	1.3579e-12	5.4501e-15
6550.3900	1.3503e-12	7.2165e-15
6551.6400	1.3415e-12	7.3318e-15
6552.8900	1.3274e-12	5.5683e-15
6554.1400	1.3068e-12	5.6118e-15
6555.3900	1.2880e-12	5.2371e-15
6556.6400	1.2647e-12	5.2350e-15
6557.8900	1.2227e-12	4.6212e-15
6559.1400	1.1494e-12	5.3575e-15
6560.3900	9.7394e-13	5.6865e-15
6561.6400	7.3878e-13	6.9981e-15
6562.8900	7.9918e-13	1.6141e-15
6564.1400	1.0539e-12	8.4908e-15
6565.3900	1.1837e-12	5.2194e-15
6566.6400	1.2388e-12	4.9155e-15
6567.8900	1.2653e-12	5.2287e-15
6569.1400	1.2893e-12	4.6441e-15
6570.3900	1.3100e-12	5.8876e-15
6571.6400	1.3220e-12	4.8364e-15
6572.8900	1.3287e-12	4.9000e-15
6574.1400	1.3338e-12	5.4636e-15
6575.3900	1.3427e-12	4.9660e-15
6576.6400	1.3517e-12	6.0097e-15
6577.8900	1.3553e-12	5.1238e-15
6579.1400	1.3556e-12	6.7632e-15
6580.3900	1.3575e-12	4.9578e-15
6581.6400	1.3579e-12	5.0770e-15
6582.8900	1.3607e-12	5.6196e-15
6584.1400	1.3622e-12	5.5400e-15
6585.3900	1.3609e-12	5.8715e-15
6586.6400	1.3631e-12	5.5910e-15
6587.8900	1.3659e-12	6.4003e-15
6589.1400	1.3668e-12	5.0779e-15
6590.3900	1.3613e-12	5.0693e-15
6591.6400	1.3367e-12	4.5188e-15
6592.8900	1.3318e-12	5.7684e-15
6594.1400	1.3553e-12	6.5868e-15
6595.3900	1.3659e-12	5.4193e-15
6596.6400	1.3659e-12	5.6797e-15
6597.8900	1.3652e-12	5.7019e-15
6599.1400	1.3674e-12	6.0727e-15
6600.3900	1.3686e-12	6.0579e-15
6601.6400	1.3688e-12	5.6130e-15
6602.8900	1.3648e-12	6.1126e-15
6604.1400	1.3616e-12	6.3126e-15
6605.3900	1.3650e-12	6.8470e-15
6606.6400	1.3639e-12	6.7759e-15
6607.8900	1.3601e-12	6.3194e-15
6609.1400	1.3639e-12	5.8178e-15
6610.3900	1.3674e-12	4.9930e-15
6611.6400	1.3672e-12	5.6257e-15
6612.8900	1.3667e-12	5.7241e-15
6614.1400	1.3677e-12	6.6330e-15
6615.3900	1.3674e-12	5.6277e-15
6616.6400	1.3668e-12	6.0333e-15
6617.8900	1.3667e-12	5.4207e-15
6619.1400	1.3668e-12	5.1821e-15
6620.3900	1.3668e-12	5.8447e-15
6621.6400	1.3669e-12	5.5110e-15
6622.8900	1.3663e-12	5.8672e-15
6624.1400	1.3650e-12	5.4784e-15
6625.3900	1.3652e-12	6.3734e-15
6626.6400	1.3633e-12	6.0786e-15
6627.8900	1.3648e-12	6.1594e-15
6629.1400	1.3654e-12	4.5587e-15
6630.3900	1.3635e-12	4.8194e-15
6631.6400	1.3594e-12	6.8421e-15
6632.8900	1.3529e-12	5.8120e-15
6634.1400	1.3553e-12	6.1666e-15
6635.3900	1.3629e-12	6.2577e-15
6636.6400	1.3651e-12	6.0212e-15
6637.8900	1.3650e-12	6.5246e-15
6639.1400	1.3645e-12	6.2384e-15
6640.3900	1.3656e-12	6.0834e-15
6641.6400	1.3588e-12	4.8912e-15
6642.8900	1.3504e-12	4.1855e-15
6644.1400	1.3574e-12	5.7346e-15
6645.3900	1.3645e-12	5.9580e-15
6646.6400	1.3659e-12	6.5897e-15
6647.8900	1.3664e-12	6.1493e-15
6649.1400	1.3667e-12	5.9018e-15
6650.3900	1.3667e-12	5.8370e-15
6651.6400	1.3661e-12	6.0768e-15
6652.8900	1.3656e-12	5.5354e-15
6654.1400	1.3653e-12	5.5622e-15
6655.3900	1.3657e-12	5.5864e-15
6656.6400	1.3669e-12	5.7331e-15
6657.8900	1.3662e-12	6.1651e-15
6659.1400	1.3648e-12	5.4325e-15
6660.3900	1.3635e-12	4.5777e-15
6661.6400	1.3551e-12	5.7965e-15
6662.8900	1.3523e-12	6.2295e-15
6664.1400	1.3585e-12	5.1587e-15
6665.3900	1.3636e-12	5.6087e-15
6666.6400	1.3630e-12	5.4810e-15
6667.8900	1.3633e-12	5.2352e-15
6669.1400	1.3647e-12	6.5362e-15
6670.3900	1.3654e-12	6.2322e-15
6671.6400	1.3656e-12	5.2965e-15
6672.8900	1.3650e-12	4.2593e-15
6674.1400	1.3657e-12	5.2162e-15
6675.3900	1.3578e-12	5.4103e-15
6676.6400	1.3360e-12	5.1979e-15
6677.8900	1.3364e-12	6.0422e-15
6679.1400	1.3559e-12	5.9296e-15
6680.3900	1.3639e-12	6.3801e-15
6681.6400	1.3643e-12	5.7804e-15
6682.8900	1.3651e-12	5.7613e-15
6684.1400	1.3655e-12	6.3710e-15
6685.3900	1.3661e-12	7.2851e-15
6686.6400	1.3658e-12	6.3473e-15
6687.8900	1.3645e-12	6.4875e-15
6689.1400	1.3642e-12	5.2711e-15
6690.3900	1.3648e-12	6.1370e-15
6691.6400	1.3636e-12	6.6864e-15
6692.8900	1.3630e-12	6.7007e-15
6694.1400	1.3613e-12	6.8062e-15
6695.3900	1.3589e-12	7.0612e-15
6696.6400	1.3610e-12	6.2861e-15
6697.8900	1.3617e-12	6.6000e-15
6699.1400	1.3621e-12	6.2423e-15
6700.3900	1.3628e-12	5.9363e-15
6701.6400	1.3612e-12	7.1809e-15
6702.8900	1.3588e-12	6.8654e-15
6704.1400	1.3575e-12	6.1763e-15
6705.3900	1.3598e-12	6.4712e-15
6706.6400	1.3621e-12	6.5522e-15
6707.8900	1.3610e-12	5.7496e-15
6709.1400	1.3614e-12	6.4295e-15
6710.3900	1.3609e-12	6.3303e-15
6711.6400	1.3596e-12	6.8660e-15
6712.8900	1.3584e-12	7.8286e-15
6714.1400	1.3574e-12	7.0099e-15
6715.3900	1.3496e-12	6.5902e-15
6716.6400	1.3330e-12	6.7779e-15
6717.8900	1.3396e-12	6.9803e-15
6719.1400	1.3551e-12	6.3442e-15
6720.3900	1.3539e-12	6.5692e-15
6721.6400	1.3545e-12	6.8722e-15
6722.8900	1.3587e-12	6.1868e-15
6724.1400	1.3583e-12	5.4111e-15
6725.3900	1.3570e-12	6.8906e-15
6726.6400	1.3586e-12	6.6195e-15
6727.8900	1.3583e-12	6.5489e-15
6729.1400	1.3590e-12	6.4379e-15
6730.3900	1.3589e-12	5.3433e-15
6731.6400	1.3580e-12	5.8918e-15
6732.8900	1.3580e-12	6.7702e-15
6734.1400	1.3578e-12	5.6092e-15
6735.3900	1.3584e-12	7.0920e-15
6736.6400	1.3566e-12	6.5440e-15
6737.8900	1.3559e-12	5.9104e-15
6739.1400	1.3567e-12	6.6551e-15
6740.3900	1.3560e-12	6.4994e-15
6741.6400	1.3536e-12	5.8572e-15
6742.8900	1.3534e-12	6.4802e-15
6744.1400	1.3554e-12	7.4225e-15
6745.3900	1.3546e-12	7.4640e-15
6746.6400	1.3540e-12	6.9873e-15
6747.8900	1.3482e-12	7.3630e-15
6749.1400	1.3430e-12	5.6836e-15
6750.3900	1.3475e-12	6.2214e-15
6751.6400	1.3517e-12	6.8609e-15
6752.8900	1.3539e-12	6.7349e-15
6754.1400	1.3528e-12	6.7825e-15
6755.3900	1.3511e-12	6.8141e-15
6756.6400	1.3497e-12	6.7945e-15
6757.8900	1.3525e-12	6.8485e-15
6759.1400	1.3521e-12	6.6994e-15
6760.3900	1.3511e-12	6.9159e-15
6761.6400	1.3509e-12	7.2107e-15
6762.8900	1.3521e-12	6.8278e-15
6764.1400	1.3510e-12	6.9164e-15
6765.3900	1.3465e-12	7.3358e-15
6766.6400	1.3368e-12	6.3212e-15
6767.8900	1.3397e-12	6.0687e-15
6769.1400	1.3474e-12	6.5254e-15
6770.3900	1.3464e-12	6.6411e-15
6771.6400	1.3454e-12	6.9794e-15
6772.8900	1.3460e-12	6.8627e-15
6774.1400	1.3473e-12	7.9015e-15
6775.3900	1.3471e-12	6.2834e-15
6776.6400	1.3472e-12	6.7979e-15
6777.8900	1.3475e-12	6.9750e-15
6779.1400	1.3469e-12	6.1039e-15
6780.3900	1.3447e-12	6.9370e-15
6781.6400	1.3443e-12	7.2402e-15
6782.8900	1.3430e-12	6.2836e-15
6784.1400	1.3425e-12	8.0930e-15
6785.3900	1.3415e-12	6.8908e-15
6786.6400	1.3422e-12	6.8613e-15
6787.8900	1.3435e-12	6.6641e-15
6789.1400	1.3433e-12	6.6043e-15
6790.3900	1.3434e-12	7.6375e-15
6791.6400	1.3424e-12	6.9828e-15
6792.8900	1.3410e-12	6.1201e-15
6794.1400	1.3401e-12	6.6601e-15
6795.3900	1.3384e-12	7.9313e-15
6796.6400	1.3383e-12	7.0294e-15
6797.8900	1.3388e-12	7.2545e-15
6799.1400	1.3380e-12	8.0194e-15
6800.3900	1.3396e-12	7.0795e-15
6801.6400	1.3386e-12	6.7904e-15
6802.8900	1.3373e-12	6.6068e-15
6804.1400	1.3371e-12	6.6814e-15
6805.3900	1.3367e-12	7.1073e-15
6806.6400	1.3360e-12	7.1497e-15
6807.8900	1.3362e-12	7.8161e-15
6809.1400	1.3335e-12	6.7583e-15
6810.3900	1.3334e-12	7.9951e-15
6811.6400	1.3345e-12	7.9571e-15
6812.8900	1.3344e-12	6.7905e-15
6814.1400	1.3346e-12	7.7855e-15
6815.3900	1.3345e-12	5.9468e-15
6816.6400	1.3349e-12	7.0344e-15
6817.8900	1.3338e-12	8.0857e-15
6819.1400	1.3318e-12	6.8833e-15
6820.3900	1.3304e-12	6.9951e-15
6821.6400	1.3331e-12	6.9053e-15
6822.8900	1.3333e-12	6.5383e-15
6824.1400	1.3317e-12	7.1297e-15
6825.3900	1.3317e-12	6.9843e-15
6826.6400	1.3276e-12	6.8370e-15
6827.8900	1.3241e-12	6.3215e-15
6829.1400	1.3277e-12	6.9338e-15
6830.3900	1.3296e-12	6.6961e-15
6831.6400	1.3298e-12	7.5784e-15
6832.8900	1.3283e-12	6.7432e-15
6834.1400	1.3277e-12	6.2828e-15
6835.3900	1.3269e-12	6.2570e-15
6836.6400	1.3232e-12	7.5546e-15
6837.8900	1.3192e-12	7.7526e-15
6839.1400	1.3179e-12	7.5778e-15
6840.3900	1.3134e-12	7.0622e-15
6841.6400	1.3117e-12	7.4099e-15
6842.8900	1.3153e-12	7.3592e-15
6844.1400	1.3191e-12	6.4921e-15
6845.3900	1.3222e-12	6.3931e-15
6846.6400	1.3218e-12	7.7892e-15
6847.8900	1.3194e-12	7.2316e-15
6849.1400	1.3205e-12	6.6556e-15
6850.3900	1.3217e-12	6.7894e-15
6851.6400	1.3206e-12	6.7910e-15
6852.8900	1.3170e-12	6.8321e-15
6854.1400	1.3094e-12	6.8935e-15
6855.3900	1.3108e-12	6.3935e-15
6856.6400	1.3135e-12	6.8250e-15
6857.8900	1.3134e-12	7.3548e-15
6859.1400	1.3144e-12	8.0295e-15
6860.3900	1.3138e-12	7.4983e-15
6861.6400	1.3127e-12	7.2826e-15
6862.8900	1.3143e-12	6.6627e-15
6864.1400	1.3164e-12	7.0502e-15
6865.3900	1.3165e-12	8.4156e-15
6866.6400	1.3201e-12	1.2380e-14
6867.8900	1.3225e-12	1.1364e-14
6869.1400	1.3037e-12	4.3743e-15
6870.3900	1.2720e-12	6.2418e-15
6871.6400	1.3104e-12	7.0616e-15
6872.8900	1.3162e-12	8.5740e-15
6874.1400	1.2714e-12	1.0521e-14
6875.3900	1.2970e-12	1.3226e-14
6876.6400	1.3203e-12	7.0265e-15
6877.8900	1.3043e-12	6.1380e-15
6879.1400	1.2863e-12	4.9565e-15
6880.3900	1.2758e-12	6.3257e-15
6881.6400	1.2902e-12	7.6415e-15
6882.8900	1.3104e-12	6.7523e-15
6884.1400	1.3085e-12	7.2542e-15
6885.3900	1.2934e-12	8.5466e-15
6886.6400	1.3140e-12	6.2430e-15
6887.8900	1.3009e-12	6.5921e-15
6889.1400	1.3069e-12	7.5454e-15
6890.3900	1.2864e-12	5.6920e-15
6891.6400	1.2859e-12	8.1282e-15
6892.8900	1.2886e-12	6.3222e-15
6894.1400	1.2954e-12	6.0257e-15
6895.3900	1.3023e-12	9.3672e-15
6896.6400	1.2928e-12	7.5114e-15
6897.8900	1.2988e-12	5.9224e-15
6899.1400	1.3107e-12	7.8247e-15
6900.3900	1.2949e-12	7.1924e-15
6901.6400	1.2947e-12	6.0586e-15
6902.8900	1.3199e-12	8.4018e-15
6904.1400	1.3154e-12	6.6003e-15
6905.3900	1.2746e-12	5.0776e-15
6906.6400	1.2753e-12	8.1940e-15
6907.8900	1.2909e-12	9.5055e-15
6909.1400	1.2861e-12	9.1320e-15
6910.3900	1.2921e-12	5.1844e-15
6911.6400	1.3008e-12	7.6040e-15
6912.8900	1.2966e-12	7.6478e-15
6914.1400	1.2955e-12	6.1165e-15
6915.3900	1.2760e-12	7.3609e-15
6916.6400	1.2894e-12	8.3703e-15
6917.8900	1.2962e-12	7.9921e-15
6919.1400	1.2910e-12	5.3126e-15
6920.3900	1.2806e-12	5.6156e-15
6921.6400	1.2910e-12	6.7451e-15
6922.8900	1.2921e-12	7.2612e-15
6924.1400	1.2927e-12	6.5913e-15
6925.3900	1.2815e-12	7.7642e-15
6926.6400	1.2885e-12	7.3215e-15
6927.8900	1.2922e-12	7.6596e-15
6929.1400	1.2887e-12	8.1946e-15
6930.3900	1.2874e-12	7.4833e-15
6931.6400	1.2908e-12	6.3381e-15
6932.8900	1.2901e-12	6.0266e-15
6934.1400	1.2916e-12	7.1032e-15
6935.3900	1.2899e-12	6.8285e-15
6936.6400	1.2866e-12	6.6931e-15
6937.8900	1.2882e-12	6.8978e-15
6939.1400	1.2892e-12	6.7387e-15
6940.3900	1.2897e-12	5.7523e-15
6941.6400	1.2859e-12	6.4480e-15
6942.8900	1.2822e-12	6.5071e-15
6944.1400	1.2762e-12	7.8668e-15
6945.3900	1.2792e-12	7.3200e-15
6946.6400	1.2877e-12	6.8636e-15
6947.8900	1.2865e-12	6.7210e-15
6949.1400	1.2828e-12	5.4668e-15
6950.3900	1.2805e-12	5.9854e-15
6951.6400	1.2824e-12	6.7198e-15
6952.8900	1.2836e-12	7.4267e-15
6954.1400	1.2843e-12	6.9387e-15
6955.3900	1.2841e-12	7.7097e-15
6956.6400	1.2843e-12	6.8780e-15
6957.8900	1.2804e-12	7.6558e-15
6959.1400	1.2801e-12	6.3421e-15
6960.3900	1.2808e-12	6.1654e-15
6961.6400	1.2816e-12	6.8905e-15
6962.8900	1.2803e-12	7.8735e-15
6964.1400	1.2784e-12	7.3725e-15
6965.3900	1.2784e-12	5.7418e-15
6966.6400	1.2806e-12	6.1788e-15
6967.8900	1.2820e-12	6.8451e-15
6969.1400	1.2814e-12	6.4057e-15
6970.3900	1.2806e-12	6.0012e-15
6971.6400	1.2801e-12	6.1679e-15
6972.8900	1.2791e-12	6.0605e-15
6974.1400	1.2759e-12	6.1704e-15
6975.3900	1.2690e-12	6.0924e-15
6976.6400	1.2636e-12	7.2034e-15
6977.8900	1.2596e-12	7.2430e-15
6979.1400	1.2657e-12	7.6737e-15
6980.3900	1.2752e-12	7.3894e-15
6981.6400	1.2766e-12	7.1284e-15
6982.8900	1.2767e-12	6.9793e-15
6984.1400	1.2758e-12	6.1852e-15
6985.3900	1.2759e-12	6.4280e-15
6986.6400	1.2749e-12	7.0233e-15
6987.8900	1.2734e-12	7.2036e-15
6989.1400	1.2751e-12	7.4428e-15
6990.3900	1.2727e-12	6.1461e-15
6991.6400	1.2720e-12	7.4679e-15
6992.8900	1.2724e-12	7.3539e-15
6994.1400	1.2721e-12	6.1189e-15
6995.3900	1.2713e-12	6.8705e-15
6996.6400	1.2709e-12	6.4520e-15
6997.8900	1.2664e-12	7.3480e-15
6999.1400	1.2637e-12	7.5996e-15
7000.3900	1.2667e-12	7.7898e-15
7001.6400	1.2639e-12	7.0141e-15
7002.8900	1.2587e-12	7.3092e-15
7004.1400	1.2538e-12	7.6473e-15
7005.3900	1.2545e-12	6.8922e-15
7006.6400	1.2634e-12	6.5087e-15
7007.8900	1.2681e-12	7.2730e-15
7009.1400	1.2685e-12	7.5255e-15
7010.3900	1.2657e-12	7.5725e-15
7011.6400	1.2628e-12	8.2178e-15
7012.8900	1.2654e-12	8.1310e-15
7014.1400	1.2634e-12	7.1655e-15
7015.3900	1.2538e-12	6.6661e-15
7016.6400	1.2540e-12	7.1217e-15
7017.8900	1.2611e-12	7.6229e-15
7019.1400	1.2664e-12	6.9529e-15
7020.3900	1.2656e-12	7.1477e-15
7021.6400	1.2608e-12	7.4338e-15
7022.8900	1.2575e-12	7.7100e-15
7024.1400	1.2603e-12	6.6483e-15
7025.3900	1.2653e-12	6.8884e-15
7026.6400	1.2654e-12	6.9053e-15
7027.8900	1.2657e-12	7.5803e-15
7029.1400	1.2639e-12	7.2147e-15
7030.3900	1.2661e-12	8.2709e-15
7031.6400	1.2652e-12	6.9431e-15
7032.8900	1.2597e-12	7.2238e-15
7034.1400	1.2540e-12	7.1106e-15
7035.3900	1.2573e-12	7.0847e-15
7036.6400	1.2580e-12	7.6828e-15
7037.8900	1.2575e-12	7.5322e-15
7039.1400	1.2603e-12	7.0259e-15
7040.3900	1.2648e-12	7.1579e-15
7041.6400	1.2640e-12	8.1759e-15
7042.8900	1.2621e-12	6.9400e-15
7044.1400	1.2628e-12	6.1159e-15
7045.3900	1.2634e-12	7.2891e-15
7046.6400	1.2634e-12	8.1299e-15
7047.8900	1.2635e-12	7.8599e-15
7049.1400	1.2628e-12	7.3430e-15
7050.3900	1.2617e-12	8.0777e-15
7051.6400	1.2610e-12	7.5094e-15
7052.8900	1.2590e-12	6.8160e-15
7054.1400	1.2564e-12	7.6775e-15
7055.3900	1.2576e-12	7.6508e-15
7056.6400	1.2597e-12	6.5405e-15
7057.8900	1.2590e-12	7.6504e-15
7059.1400	1.2556e-12	7.2552e-15
7060.3900	1.2566e-12	7.8841e-15
7061.6400	1.2584e-12	7.8493e-15
7062.8900	1.2583e-12	8.3023e-15
7064.1400	1.2583e-12	7.2997e-15
7065.3900	1.2579e-12	7.9744e-15
7066.6400	1.2545e-12	7.7280e-15
7067.8900	1.2518e-12	6.9311e-15
7069.1400	1.2563e-12	7.6754e-15
7070.3900	1.2575e-12	7.6643e-15
7071.6400	1.2558e-12	8.3079e-15
7072.8900	1.2581e-12	7.7418e-15
7074.1400	1.2581e-12	8.0065e-15
7075.3900	1.2582e-12	5.9469e-15
7076.6400	1.2582e-12	7.1215e-15
7077.8900	1.2571e-12	8.4111e-15
7079.1400	1.2565e-12	7.5526e-15
7080.3900	1.2571e-12	7.1542e-15
7081.6400	1.2544e-12	7.4141e-15
7082.8900	1.2495e-12	6.8150e-15
7084.1400	1.2474e-12	7.4469e-15
7085.3900	1.2507e-12	7.8793e-15
7086.6400	1.2532e-12	7.5766e-15
7087.8900	1.2512e-12	7.3912e-15
7089.1400	1.2486e-12	6.9767e-15
7090.3900	1.2492e-12	7.5527e-15
7091.6400	1.2533e-12	7.7179e-15
7092.8900	1.2531e-12	7.7350e-15
7094.1400	1.2524e-12	7.1172e-15
7095.3900	1.2516e-12	7.5646e-15
7096.6400	1.2515e-12	7.8086e-15
7097.8900	1.2536e-12	8.9169e-15
7099.1400	1.2530e-12	8.2466e-15
7100.3900	1.2520e-12	7.9717e-15
7101.6400	1.2525e-12	7.9316e-15
7102.8900	1.2523e-12	7.3332e-15
7104.1400	1.2526e-12	7.1565e-15
7105.3900	1.2522e-12	7.6248e-15
7106.6400	1.2513e-12	6.4121e-15
7107.8900	1.2505e-12	8.2137e-15
7109.1400	1.2495e-12	6.9673e-15
7110.3900	1.2472e-12	7.6467e-15
7111.6400	1.2456e-12	8.0809e-15
7112.8900	1.2471e-12	8.5328e-15
7114.1400	1.2477e-12	7.9825e-15
7115.3900	1.2474e-12	8.4283e-15
7116.6400	1.2466e-12	7.7558e-15
7117.8900	1.2466e-12	6.8538e-15
7119.1400	1.2456e-12	7.2241e-15
7120.3900	1.2353e-12	7.3961e-15
7121.6400	1.2296e-12	8.0433e-15
7122.8900	1.2412e-12	7.1830e-15
7124.1400	1.2470e-12	7.6496e-15
7125.3900	1.2457e-12	8.4634e-15
7126.6400	1.2448e-12	7.9739e-15
7127.8900	1.2438e-12	7.8319e-15
7129.1400	1.2359e-12	7.4843e-15
7130.3900	1.2331e-12	7.6137e-15
7131.6400	1.2380e-12	7.1233e-15
7132.8900	1.2438e-12	8.0600e-15
7134.1400	1.2455e-12	6.7796e-15
7135.3900	1.2457e-12	7.8556e-15
7136.6400	1.2438e-12	8.2855e-15
7137.8900	1.2441e-12	7.8751e-15
7139.1400	1.2439e-12	8.8558e-15
7140.3900	1.2427e-12	7.7375e-15
7141.6400	1.2414e-12	7.2307e-15
7142.8900	1.2408e-12	7.4637e-15
7144.1400	1.2412e-12	6.9146e-15
7145.3900	1.2346e-12	7.9308e-15
7146.6400	1.2065e-12	6.7146e-15
7147.8900	1.2041e-12	8.3239e-15
7149.1400	1.2327e-12	8.2016e-15
7150.3900	1.2398e-12	7.1569e-15
7151.6400	1.2400e-12	7.2859e-15
7152.8900	1.2401e-12	7.5857e-15
7154.1400	1.2381e-12	7.7370e-15
7155.3900	1.2391e-12	7.4158e-15
7156.6400	1.2402e-12	7.8767e-15
7157.8900	1.2390e-12	7.4247e-15
7159.1400	1.2388e-12	7.2983e-15
7160.3900	1.2389e-12	7.4458e-15
7161.6400	1.2352e-12	7.0434e-15
7162.8900	1.2180e-12	7.3370e-15
7164.1400	1.2051e-12	6.6340e-15
7165.3900	1.2202e-12	7.1864e-15
7166.6400	1.2352e-12	7.3177e-15
7167.8900	1.2363e-12	8.2519e-15
7169.1400	1.2339e-12	7.2996e-15
7170.3900	1.2344e-12	7.5556e-15
7171.6400	1.2366e-12	7.1230e-15
7172.8900	1.2348e-12	7.4699e-15
7174.1400	1.2285e-12	6.7292e-15
7175.3900	1.2289e-12	7.5024e-15
7176.6400	1.2301e-12	7.3060e-15
7177.8900	1.2319e-12	7.2760e-15
7179.1400	1.2273e-12	7.3996e-15
7180.3900	1.2271e-12	7.3309e-15
7181.6400	1.2247e-12	7.3470e-15
7182.8900	1.2224e-12	6.7300e-15
7184.1400	1.2186e-12	6.7446e-15
7185.3900	1.2108e-12	5.9867e-15
7186.6400	1.2000e-12	7.6883e-15
7187.8900	1.2103e-12	8.1855e-15
7189.1400	1.2260e-12	9.0588e-15
7190.3900	1.2317e-12	7.7857e-15
7191.6400	1.2204e-12	7.4991e-15
7192.8900	1.2090e-12	6.7707e-15
7194.1400	1.2221e-12	6.6848e-15
7195.3900	1.2212e-12	8.6360e-15
7196.6400	1.2222e-12	7.5644e-15
7197.8900	1.2256e-12	7.2493e-15
7199.1400	1.2244e-12	8.8700e-15
7200.3900	1.2034e-12	8.4811e-15
7201.6400	1.1965e-12	6.6490e-15
7202.8900	1.2153e-12	8.0172e-15
7204.1400	1.2204e-12	8.0738e-15
7205.3900	1.2102e-12	7.1770e-15
7206.6400	1.1986e-12	7.5065e-15
7207.8900	1.2018e-12	9.1408e-15
7209.1400	1.2167e-12	7.8373e-15
7210.3900	1.2244e-12	6.8656e-15
7211.6400	1.2246e-12	7.9523e-15
7212.8900	1.2216e-12	7.9415e-15
7214.1400	1.2194e-12	7.1848e-15
7215.3900	1.2223e-12	7.2775e-15
7216.6400	1.2202e-12	8.1103e-15
7217.8900	1.2152e-12	7.5295e-15
7219.1400	1.2162e-12	8.1237e-15
7220.3900	1.2179e-12	8.0738e-15
7221.6400	1.2160e-12	8.7301e-15
7222.8900	1.2127e-12	8.1727e-15
7224.1400	1.2138e-12	7.9145e-15
7225.3900	1.2151e-12	7.9716e-15
7226.6400	1.2181e-12	8.1541e-15
7227.8900	1.2214e-12	1.2150e-14
7229.1400	1.2177e-12	8.4054e-15
7230.3900	1.2190e-12	7.9201e-15
7231.6400	1.2199e-12	8.9331e-15
7232.8900	1.2127e-12	9.3088e-15
7234.1400	1.2028e-12	7.5978e-15
7235.3900	1.2112e-12	6.7937e-15
7236.6400	1.2153e-12	7.7807e-15
7237.8900	1.2124e-12	7.7442e-15
7239.1400	1.2102e-12	7.4744e-15
7240.3900	1.2054e-12	8.0243e-15
7241.6400	1.2146e-12	7.8597e-15
7242.8900	1.2138e-12	7.7710e-15
7244.1400	1.2094e-12	8.5064e-15
7245.3900	1.2075e-12	9.3162e-15
7246.6400	1.2139e-12	7.7466e-15
7247.8900	1.2143e-12	7.4483e-15
7249.1400	1.2060e-12	8.1559e-15
7250.3900	1.2014e-12	7.5421e-15
7251.6400	1.2063e-12	7.8965e-15
7252.8900	1.2073e-12	7.1112e-15
7254.1400	1.2064e-12	7.1145e-15
7255.3900	1.2093e-12	7.7770e-15
7256.6400	1.2118e-12	7.9784e-15
7257.8900	1.2098e-12	8.8838e-15
7259.1400	1.2070e-12	7.0387e-15
7260.3900	1.2023e-12	7.7582e-15
7261.6400	1.2027e-12	7.5826e-15
7262.8900	1.2080e-12	7.8317e-15
7264.1400	1.2042e-12	8.3785e-15
7265.3900	1.2013e-12	8.2213e-15
7266.6400	1.2075e-12	6.9770e-15
7267.8900	1.2110e-12	7.3492e-15
7269.1400	1.2069e-12	7.2462e-15
7270.3900	1.2059e-12	8.5424e-15
7271.6400	1.2069e-12	9.3291e-15
7272.8900	1.1993e-12	8.3789e-15
7274.1400	1.1925e-12	7.0927e-15
7275.3900	1.1987e-12	7.9424e-15
7276.6400	1.1996e-12	7.3807e-15
7277.8900	1.2008e-12	7.6276e-15
7279.1400	1.2012e-12	8.3279e-15
7280.3900	1.1987e-12	8.1996e-15
7281.6400	1.1921e-12	8.1999e-15
7282.8900	1.1925e-12	6.3340e-15
7284.1400	1.1975e-12	6.7559e-15
7285.3900	1.2004e-12	7.9097e-15
7286.6400	1.1913e-12	7.3610e-15
7287.8900	1.1733e-12	8.9188e-15
7289.1400	1.1764e-12	8.7193e-15
7290.3900	1.1857e-12	8.4762e-15
7291.6400	1.1818e-12	7.4363e-15
7292.8900	1.1900e-12	6.7818e-15
7294.1400	1.1947e-12	7.3200e-15
7295.3900	1.1974e-12	6.6280e-15
7296.6400	1.1972e-12	7.5553e-15
7297.8900	1.1979e-12	8.3644e-15
7299.1400	1.1961e-12	8.4125e-15
7300.3900	1.1951e-12	7.8066e-15
7301.6400	1.1953e-12	6.7026e-15
7302.8900	1.1940e-12	7.1445e-15
7304.1400	1.1926e-12	7.9684e-15
7305.3900	1.1901e-12	7.6973e-15
7306.6400	1.1879e-12	7.1218e-15
7307.8900	1.1879e-12	7.1666e-15
7309.1400	1.1869e-12	7.5043e-15
7310.3900	1.1855e-12	7.8385e-15
7311.6400	1.1919e-12	8.2685e-15
7312.8900	1.1932e-12	7.3839e-15
7314.1400	1.1909e-12	7.6791e-15
7315.3900	1.1906e-12	6.4542e-15
7316.6400	1.1925e-12	7.7378e-15
7317.8900	1.1920e-12	7.1634e-15
7319.1400	1.1876e-12	7.1705e-15
7320.3900	1.1861e-12	8.0598e-15
7321.6400	1.1903e-12	8.2840e-15
7322.8900	1.1901e-12	7.4501e-15
7324.1400	1.1762e-12	6.9564e-15
7325.3900	1.1652e-12	7.4372e-15
7326.6400	1.1793e-12	8.3591e-15
7327.8900	1.1887e-12	7.8703e-15
7329.1400	1.1865e-12	7.7310e-15
7330.3900	1.1847e-12	7.7658e-15
7331.6400	1.1876e-12	8.6778e-15
7332.8900	1.1886e-12	7.2143e-15
7334.1400	1.1891e-12	7.0660e-15
7335.3900	1.1888e-12	8.2299e-15
7336.6400	1.1881e-12	7.1939e-15
7337.8900	1.1893e-12	7.7041e-15
7339.1400	1.1890e-12	7.9081e-15
7340.3900	1.1885e-12	8.1736e-15
7341.6400	1.1892e-12	8.3990e-15
7342.8900	1.1880e-12	8.3104e-15
7344.1400	1.1872e-12	8.2768e-15
7345.3900	1.1869e-12	8.2638e-15
7346.6400	1.1873e-12	7.6065e-15
7347.8900	1.1881e-12	7.2334e-15
7349.1400	1.1846e-12	6.9321e-15
7350.3900	1.1816e-12	6.1302e-15
7351.6400	1.1828e-12	6.3102e-15
7352.8900	1.1839e-12	7.0718e-15
7354.1400	1.1793e-12	7.3478e-15
7355.3900	1.1777e-12	7.6721e-15
7356.6400	1.1815e-12	7.6225e-15
7357.8900	1.1849e-12	7.0162e-15
7359.1400	1.1854e-12	9.0082e-15
7360.3900	1.1803e-12	7.6815e-15
7361.6400	1.1776e-12	7.4376e-15
7362.8900	1.1798e-12	8.9329e-15
7364.1400	1.1811e-12	8.2761e-15
7365.3900	1.1807e-12	8.2448e-15
7366.6400	1.1810e-12	8.2834e-15
7367.8900	1.1820e-12	8.5222e-15
7369.1400	1.1828e-12	7.6875e-15
7370.3900	1.1827e-12	7.7501e-15
7371.6400	1.1794e-12	8.2866e-15
7372.8900	1.1773e-12	8.8791e-15
7374.1400	1.1760e-12	7.2346e-15
7375.3900	1.1769e-12	8.2676e-15
7376.6400	1.1809e-12	7.4382e-15
7377.8900	1.1810e-12	8.4272e-15
7379.1400	1.1807e-12	7.5938e-15
7380.3900	1.1790e-12	7.4017e-15
7381.6400	1.1776e-12	7.8261e-15
7382.8900	1.1776e-12	7.8535e-15
7384.1400	1.1711e-12	7.2117e-15
7385.3900	1.1626e-12	6.5440e-15
7386.6400	1.1591e-12	6.9212e-15
7387.8900	1.1558e-12	6.6591e-15
7389.1400	1.1631e-12	7.4157e-15
7390.3900	1.1737e-12	8.7129e-15
7391.6400	1.1684e-12	6.3314e-15
7392.8900	1.1636e-12	7.3160e-15
7394.1400	1.1696e-12	7.3968e-15
7395.3900	1.1751e-12	8.2217e-15
7396.6400	1.1757e-12	8.0428e-15
7397.8900	1.1726e-12	7.3128e-15
7399.1400	1.1674e-12	7.2529e-15
7400.3900	1.1660e-12	7.5332e-15
7401.6400	1.1712e-12	8.1383e-15
7402.8900	1.1719e-12	6.8678e-15
7404.1400	1.1585e-12	6.5614e-15
7405.3900	1.1540e-12	7.1727e-15
7406.6400	1.1615e-12	7.2282e-15
7407.8900	1.1503e-12	7.4382e-15
7409.1400	1.1441e-12	7.2607e-15
7410.3900	1.1526e-12	7.6617e-15
7411.6400	1.1635e-12	7.6697e-15
7412.8900	1.1638e-12	8.0179e-15
7414.1400	1.1502e-12	6.7460e-15
7415.3900	1.1487e-12	8.0618e-15
7416.6400	1.1615e-12	7.3943e-15
7417.8900	1.1667e-12	8.0649e-15
7419.1400	1.1664e-12	5.9081e-15
7420.3900	1.1566e-12	6.9366e-15
7421.6400	1.1382e-12	6.6252e-15
7422.8900	1.1385e-12	6.8582e-15
7424.1400	1.1578e-12	7.0550e-15
7425.3900	1.1661e-12	8.1943e-15
7426.6400	1.1663e-12	7.8669e-15
7427.8900	1.1661e-12	8.2533e-15
7429.1400	1.1656e-12	7.8572e-15
7430.3900	1.1633e-12	7.7131e-15
7431.6400	1.1640e-12	7.9718e-15
7432.8900	1.1650e-12	7.2763e-15
7434.1400	1.1648e-12	7.4497e-15
7435.3900	1.1646e-12	6.8124e-15
7436.6400	1.1638e-12	7.7759e-15
7437.8900	1.1623e-12	7.4133e-15
7439.1400	1.1607e-12	6.9795e-15
7440.3900	1.1589e-12	6.9679e-15
7441.6400	1.1595e-12	7.1188e-15
7442.8900	1.1562e-12	7.9247e-15
7444.1400	1.1434e-12	7.1173e-15
7445.3900	1.1394e-12	6.8696e-15
7446.6400	1.1519e-12	7.0148e-15
7447.8900	1.1564e-12	7.3218e-15
7449.1400	1.1573e-12	6.7177e-15
7450.3900	1.1578e-12	6.8917e-15
7451.6400	1.1590e-12	7.3604e-15
7452.8900	1.1588e-12	7.7912e-15
7454.1400	1.1588e-12	7.4947e-15
7455.3900	1.1577e-12	7.8307e-15
7456.6400	1.1582e-12	6.5138e-15
7457.8900	1.1585e-12	7.6772e-15
7459.1400	1.1569e-12	7.7730e-15
7460.3900	1.1482e-12	7.1626e-15
7461.6400	1.1421e-12	7.7016e-15
7462.8900	1.1496e-12	8.3518e-15
7464.1400	1.1556e-12	7.1847e-15
7465.3900	1.1558e-12	7.6076e-15
7466.6400	1.1553e-12	7.2635e-15
7467.8900	1.1551e-12	7.3279e-15
7469.1400	1.1541e-12	8.4900e-15
7470.3900	1.1544e-12	7.7369e-15
7471.6400	1.1541e-12	8.0127e-15
7472.8900	1.1534e-12	7.3485e-15
7474.1400	1.1530e-12	6.6750e-15
7475.3900	1.1522e-12	7.5179e-15
7476.6400	1.1514e-12	7.3650e-15
7477.8900	1.1516e-12	7.8133e-15
7479.1400	1.1503e-12	7.9353e-15
7480.3900	1.1502e-12	7.3316e-15
7481.6400	1.1495e-12	9.2098e-15
7482.8900	1.1507e-12	7.2650e-15
7484.1400	1.1511e-12	8.0103e-15
7485.3900	1.1515e-12	7.4994e-15
7486.6400	1.1508e-12	6.8593e-15
7487.8900	1.1499e-12	7.1819e-15
7489.1400	1.1471e-12	7.0355e-15
7490.3900	1.1442e-12	7.8666e-15
7491.6400	1.1434e-12	6.7724e-15
7492.8900	1.1351e-12	7.3621e-15
7494.1400	1.1218e-12	6.9458e-15
7495.3900	1.1334e-12	7.2744e-15
7496.6400	1.1460e-12	8.4560e-15
7497.8900	1.1455e-12	7.0506e-15
7499.1400	1.1458e-12	7.8480e-15
7500.3900	1.1471e-12	7.3487e-15
7501.6400	1.1468e-12	7.7415e-15
7502.8900	1.1450e-12	7.2368e-15
7504.1400	1.1439e-12	6.8661e-15
7505.3900	1.1422e-12	6.8779e-15
7506.6400	1.1401e-12	7.4694e-15
7507.8900	1.1409e-12	7.7298e-15
7509.1400	1.1228e-12	6.8839e-15
7510.3900	1.1129e-12	8.4059e-15
7511.6400	1.1302e-12	7.3288e-15
7512.8900	1.1427e-12	7.9336e-15
7514.1400	1.1417e-12	8.0775e-15
7515.3900	1.1408e-12	7.4184e-15
7516.6400	1.1420e-12	6.8771e-15
7517.8900	1.1413e-12	7.2249e-15
7519.1400	1.1416e-12	8.4581e-15
7520.3900	1.1387e-12	7.3998e-15
7521.6400	1.1316e-12	8.6722e-15
7522.8900	1.1305e-12	7.8982e-15
7524.1400	1.1328e-12	6.1778e-15
7525.3900	1.1361e-12	7.2576e-15
7526.6400	1.1388e-12	7.8682e-15
7527.8900	1.1387e-12	7.6705e-15
7529.1400	1.1321e-12	8.4289e-15
7530.3900	1.1257e-12	7.7115e-15
7531.6400	1.1309e-12	6.7279e-15
7532.8900	1.1366e-12	8.1782e-15
7534.1400	1.1379e-12	8.3772e-15
7535.3900	1.1372e-12	7.5440e-15
7536.6400	1.1375e-12	6.6900e-15
7537.8900	1.1370e-12	8.2213e-15
7539.1400	1.1353e-12	7.3919e-15
7540.3900	1.1363e-12	8.4634e-15
7541.6400	1.1350e-12	8.1552e-15
7542.8900	1.1354e-12	7.7061e-15
7544.1400	1.1343e-12	6.9717e-15
7545.3900	1.1322e-12	8.5090e-15
7546.6400	1.1310e-12	7.2192e-15
7547.8900	1.1332e-12	6.7212e-15
7549.1400	1.1333e-12	8.0757e-15
7550.3900	1.1333e-12	7.9473e-15
7551.6400	1.1333e-12	7.4512e-15
7552.8900	1.1300e-12	7.8306e-15
7554.1400	1.1209e-12	7.3004e-15
7555.3900	1.1208e-12	8.0597e-15
7556.6400	1.1274e-12	8.0080e-15
7557.8900	1.1295e-12	7.4180e-15
7559.1400	1.1279e-12	8.2141e-15
7560.3900	1.1293e-12	8.5929e-15
7561.6400	1.1285e-12	8.8334e-15
7562.8900	1.1278e-12	9.8824e-15
7564.1400	1.1276e-12	8.9654e-15
7565.3900	1.1271e-12	7.2186e-15
7566.6400	1.1243e-12	7.1270e-15
7567.8900	1.1201e-12	7.8937e-15
7569.1400	1.1228e-12	8.9555e-15
7570.3900	1.1261e-12	8.9107e-15
7571.6400	1.1250e-12	7.3845e-15
7572.8900	1.1212e-12	7.2802e-15
7574.1400	1.1218e-12	7.5602e-15
7575.3900	1.1251e-12	8.2359e-15
7576.6400	1.1252e-12	7.3179e-15
7577.8900	1.1264e-12	8.0799e-15
7579.1400	1.1249e-12	8.8410e-15
7580.3900	1.1243e-12	8.2455e-15
7581.6400	1.1167e-12	7.1977e-15
7582.8900	1.1096e-12	6.6229e-15
7584.1400	1.1029e-12	6.1698e-15
7585.3900	1.1029e-12	6.4513e-15
7586.6400	1.1102e-12	6.3477e-15
7587.8900	1.1189e-12	7.6974e-15
7589.1400	1.1200e-12	7.4035e-15
7590.3900	1.1187e-12	7.7076e-15
7591.6400	1.1207e-12	6.8513e-15
7592.8900	1.1323e-12	7.4317e-15
7594.1400	1.1363e-12	1.0053e-14
7595.3900	1.1172e-12	1.1736e-14
7596.6400	1.1181e-12	1.0508e-14
7597.8900	1.1189e-12	7.7651e-15
7599.1400	1.1327e-12	1.0205e-14
7600.3900	1.0323e-12	2.0435e-14
7601.6400	1.0093e-12	8.5643e-15
7602.8900	1.1235e-12	2.2663e-14
7604.1400	1.0546e-12	7.3783e-15
7605.3900	1.0442e-12	1.5704e-14
7606.6400	1.1181e-12	1.5646e-14
7607.8900	1.1062e-12	1.6223e-14
7609.1400	1.0580e-12	1.0454e-14
7610.3900	1.0791e-12	7.2454e-15
7611.6400	1.0516e-12	9.8450e-15
7612.8900	1.1126e-12	8.0958e-15
7614.1400	1.1801e-12	7.2217e-15
7615.3900	1.1477e-12	7.8300e-15
7616.6400	1.0704e-12	1.1706e-14
7617.8900	1.0716e-12	9.7538e-15
7619.1400	1.0973e-12	7.6264e-15
7620.3900	1.0979e-12	7.9247e-15
7621.6400	1.1207e-12	8.5299e-15
7622.8900	1.0544e-12	9.3017e-15
7624.1400	1.0921e-12	8.3559e-15
7625.3900	1.1520e-12	1.3092e-14
7626.6400	1.0786e-12	1.0418e-14
7627.8900	1.0820e-12	8.2467e-15
7629.1400	1.1431e-12	1.0310e-14
7630.3900	1.1051e-12	7.1358e-15
7631.6400	1.1022e-12	9.2569e-15
7632.8900	1.1264e-12	1.6500e-14
7634.1400	1.1335e-12	1.3010e-14
7635.3900	1.1518e-12	9.4504e-15
7636.6400	1.0766e-12	9.7421e-15
7637.8900	1.0442e-12	1.2875e-14
7639.1400	1.0523e-12	5.7503e-15
7640.3900	1.0833e-12	6.9206e-15
7641.6400	1.1522e-12	1.4365e-14
7642.8900	1.1396e-12	1.2288e-14
7644.1400	1.1058e-12	8.5860e-15
7645.3900	1.0893e-12	9.3501e-15
7646.6400	1.0903e-12	7.7393e-15
7647.8900	1.1287e-12	7.5934e-15
7649.1400	1.1333e-12	7.7384e-15
7650.3900	1.0864e-12	8.7717e-15
7651.6400	1.0676e-12	1.0481e-14
7652.8900	1.1123e-12	8.9629e-15
7654.1400	1.1213e-12	9.4514e-15
7655.3900	1.0770e-12	8.4865e-15
7656.6400	1.0433e-12	8.1943e-15
7657.8900	1.0651e-12	6.7542e-15
7659.1400	1.0556e-12	8.4300e-15
7660.3900	1.0786e-12	7.7874e-15
7661.6400	1.1060e-12	8.0165e-15
7662.8900	1.0714e-12	5.9570e-15
7664.1400	1.0389e-12	7.2187e-15
7665.3900	1.0683e-12	7.0694e-15
7666.6400	1.0967e-12	9.7651e-15
7667.8900	1.0953e-12	9.1677e-15
7669.1400	1.0906e-12	8.1507e-15
7670.3900	1.0797e-12	8.3467e-15
7671.6400	1.0940e-12	8.0676e-15
7672.8900	1.1121e-12	6.9920e-15
7674.1400	1.1106e-12	7.1863e-15
7675.3900	1.1054e-12	6.3300e-15
7676.6400	1.1044e-12	8.5266e-15
7677.8900	1.0899e-12	8.0472e-15
7679.1400	1.0734e-12	8.3802e-15
7680.3900	1.0869e-12	7.8386e-15
7681.6400	1.1001e-12	6.0028e-15
7682.8900	1.1045e-12	7.4278e-15
7684.1400	1.0882e-12	8.1359e-15
7685.3900	1.0843e-12	8.4756e-15
7686.6400	1.0900e-12	9.5636e-15
7687.8900	1.0911e-12	9.3538e-15
7689.1400	1.0861e-12	7.9881e-15
7690.3900	1.0759e-12	7.0642e-15
7691.6400	1.0770e-12	8.2966e-15
7692.8900	1.0863e-12	5.8723e-15
7694.1400	1.0868e-12	7.1499e-15
7695.3900	1.0830e-12	8.6028e-15
7696.6400	1.0679e-12	7.5494e-15
7697.8900	1.0507e-12	8.6249e-15
7699.1400	1.0673e-12	8.6005e-15
7700.3900	1.0870e-12	7.9997e-15
7701.6400	1.0883e-12	6.5177e-15
7702.8900	1.0876e-12	5.7833e-15
7704.1400	1.0841e-12	6.3249e-15
7705.3900	1.0832e-12	5.7484e-15
7706.6400	1.0832e-12	5.3639e-15
7707.8900	1.0799e-12	5.1050e-15
7709.1400	1.0729e-12	4.7338e-15
7710.3900	1.0693e-12	5.2745e-15
7711.6400	1.0707e-12	6.1688e-15
7712.8900	1.0662e-12	5.4649e-15
7714.1400	1.0681e-12	8.6935e-15
7715.3900	1.0760e-12	6.9314e-15
7716.6400	1.0784e-12	8.1547e-15
7717.8900	1.0790e-12	6.9535e-15
7719.1400	1.0781e-12	7.4798e-15
7720.3900	1.0763e-12	6.6820e-15
7721.6400	1.0743e-12	5.1812e-15
7722.8900	1.0728e-12	4.5192e-15
7724.1400	1.0755e-12	5.3163e-15
7725.3900	1.0691e-12	5.2846e-15
7726.6400	1.0636e-12	6.1479e-15
7727.8900	1.0674e-12	5.7249e-15
7729.1400	1.0734e-12	7.2320e-15
7730.3900	1.0744e-12	6.7898e-15
7731.6400	1.0749e-12	7.4786e-15
7732.8900	1.0733e-12	8.0930e-15
7734.1400	1.0732e-12	6.9142e-15
7735.3900	1.0729e-12	7.2475e-15
7736.6400	1.0711e-12	5.8703e-15
7737.8900	1.0726e-12	7.0559e-15
7739.1400	1.0722e-12	7.7456e-15
7740.3900	1.0636e-12	7.3989e-15
7741.6400	1.0539e-12	7.6439e-15
7742.8900	1.0611e-12	7.6677e-15
7744.1400	1.0681e-12	7.9916e-15
7745.3900	1.0662e-12	8.2594e-15
7746.6400	1.0501e-12	8.6522e-15
7747.8900	1.0414e-12	8.0853e-15
7749.1400	1.0547e-12	7.7785e-15
7750.3900	1.0637e-12	8.4318e-15
7751.6400	1.0649e-12	7.8876e-15
7752.8900	1.0633e-12	5.7990e-15
7754.1400	1.0624e-12	6.2305e-15
7755.3900	1.0616e-12	7.2401e-15
7756.6400	1.0623e-12	7.0573e-15
7757.8900	1.0586e-12	7.7659e-15
7759.1400	1.0585e-12	7.8203e-15
7760.3900	1.0605e-12	7.3663e-15
7761.6400	1.0623e-12	7.4921e-15
7762.8900	1.0615e-12	8.3960e-15
7764.1400	1.0598e-12	7.4825e-15
7765.3900	1.0587e-12	6.1751e-15
7766.6400	1.0583e-12	8.0173e-15
7767.8900	1.0587e-12	6.1024e-15
7769.1400	1.0535e-12	5.1650e-15
7770.3900	1.0351e-12	5.2346e-15
7771.6400	1.0254e-12	4.1313e-15
7772.8900	1.0265e-12	8.4920e-15
7774.1400	1.0257e-12	7.4544e-15
7775.3900	1.0426e-12	7.8683e-15
7776.6400	1.0547e-12	6.9575e-15
7777.8900	1.0517e-12	7.3182e-15
7779.1400	1.0384e-12	7.8543e-15
7780.3900	1.0419e-12	9.1411e-15
7781.6400	1.0513e-12	8.0494e-15
7782.8900	1.0528e-12	8.1548e-15
7784.1400	1.0513e-12	7.3115e-15
7785.3900	1.0517e-12	8.5855e-15
7786.6400	1.0489e-12	7.6418e-15
7787.8900	1.0418e-12	8.4353e-15
7789.1400	1.0441e-12	6.7677e-15
7790.3900	1.0490e-12	8.0207e-15
7791.6400	1.0510e-12	8.3500e-15
7792.8900	1.0496e-12	9.2580e-15
7794.1400	1.0501e-12	9.8030e-15
7795.3900	1.0433e-12	8.9727e-15
7796.6400	1.0368e-12	8.0235e-15
7797.8900	1.0361e-12	8.3949e-15
7799.1400	1.0383e-12	7.7666e-15
7800.3900	1.0424e-12	7.9502e-15
7801.6400	1.0457e-12	7.3993e-15
7802.8900	1.0458e-12	7.7219e-15
7804.1400	1.0449e-12	7.2447e-15
7805.3900	1.0440e-12	8.1916e-15
7806.6400	1.0411e-12	8.7306e-15
7807.8900	1.0392e-12	6.8675e-15
7809.1400	1.0371e-12	7.6834e-15
7810.3900	1.0359e-12	7.1419e-15
7811.6400	1.0354e-12	5.7850e-15
7812.8900	1.0399e-12	5.0997e-15
7814.1400	1.0392e-12	4.8977e-15
7815.3900	1.0391e-12	4.9357e-15
7816.6400	1.0379e-12	5.8217e-15
7817.8900	1.0389e-12	6.9934e-15
7819.1400	1.0393e-12	7.8176e-15
7820.3900	1.0402e-12	7.6676e-15
7821.6400	1.0411e-12	6.6292e-15
7822.8900	1.0418e-12	7.7118e-15
7824.1400	1.0401e-12	6.4902e-15
7825.3900	1.0383e-12	6.5046e-15
7826.6400	1.0384e-12	6.7268e-15
7827.8900	1.0386e-12	6.8793e-15
7829.1400	1.0358e-12	7.6592e-15
7830.3900	1.0248e-12	7.1447e-15
7831.6400	1.0188e-12	7.5182e-15
7832.8900	1.0288e-12	8.3315e-15
7834.1400	1.0298e-12	6.7060e-15
7835.3900	1.0297e-12	6.4600e-15
7836.6400	1.0345e-12	7.4427e-15
7837.8900	1.0355e-12	5.6773e-15
7839.1400	1.0349e-12	7.0047e-15
7840.3900	1.0344e-12	6.6978e-15
7841.6400	1.0336e-12	6.3165e-15
7842.8900	1.0349e-12	7.9425e-15
7844.1400	1.0348e-12	7.7006e-15
7845.3900	1.0340e-12	6.9503e-15
7846.6400	1.0335e-12	7.2696e-15
7847.8900	1.0295e-12	7.3877e-15
7849.1400	1.0263e-12	6.9260e-15
7850.3900	1.0293e-12	8.0174e-15
7851.6400	1.0321e-12	8.6191e-15
7852.8900	1.0323e-12	7.0154e-15
7854.1400	1.0321e-12	7.4124e-15
7855.3900	1.0319e-12	7.1542e-15
7856.6400	1.0316e-12	7.7297e-15
7857.8900	1.0312e-12	7.0381e-15
7859.1400	1.0307e-12	7.3297e-15
7860.3900	1.0305e-12	7.5218e-15
7861.6400	1.0313e-12	6.9950e-15
7862.8900	1.0303e-12	7.4412e-15
7864.1400	1.0295e-12	6.9165e-15
7865.3900	1.0295e-12	7.5553e-15
7866.6400	1.0293e-12	7.6802e-15
7867.8900	1.0277e-12	8.1185e-15
7869.1400	1.0274e-12	6.7624e-15
7870.3900	1.0285e-12	6.0491e-15
7871.6400	1.0291e-12	5.7262e-15
7872.8900	1.0286e-12	8.2905e-15
7874.1400	1.0267e-12	8.7116e-15
7875.3900	1.0253e-12	6.8308e-15
7876.6400	1.0234e-12	7.0062e-15
7877.8900	1.0261e-12	6.7241e-15
7879.1400	1.0254e-12	7.2021e-15
7880.3900	1.0231e-12	7.0420e-15
7881.6400	1.0249e-12	7.7109e-15
7882.8900	1.0261e-12	6.9481e-15
7884.1400	1.0259e-12	7.6229e-15
7885.3900	1.0263e-12	7.2281e-15
7886.6400	1.0258e-12	6.2791e-15
7887.8900	1.0252e-12	7.8320e-15
7889.1400	1.0250e-12	7.5022e-15
7890.3900	1.0254e-12	7.5626e-15
7891.6400	1.0243e-12	6.6138e-15
7892.8900	1.0245e-12	7.0852e-15
7894.1400	1.0228e-12	7.0833e-15
7895.3900	1.0183e-12	6.7338e-15
7896.6400	1.0205e-12	5.9988e-15
7897.8900	1.0245e-12	6.5639e-15
7899.1400	1.0232e-12	7.2433e-15
7900.3900	1.0235e-12	6.8543e-15
7901.6400	1.0226e-12	6.7496e-15
7902.8900	1.0231e-12	6.3101e-15
7904.1400	1.0239e-12	7.4167e-15
7905.3900	1.0233e-12	6.4696e-15
7906.6400	1.0223e-12	7.5419e-15
7907.8900	1.0219e-12	7.5377e-15
7909.1400	1.0212e-12	7.0925e-15
7910.3900	1.0185e-12	7.3229e-15
7911.6400	1.0169e-12	6.9750e-15
7912.8900	1.0175e-12	6.3524e-15
7914.1400	1.0213e-12	7.7577e-15
7915.3900	1.0200e-12	8.3946e-15
7916.6400	1.0106e-12	7.5060e-15
7917.8900	1.0082e-12	6.8453e-15
7919.1400	1.0160e-12	6.8540e-15
7920.3900	1.0200e-12	6.8849e-15
7921.6400	1.0211e-12	6.7033e-15
7922.8900	1.0206e-12	6.7481e-15
7924.1400	1.0175e-12	7.2482e-15
7925.3900	1.0175e-12	7.9092e-15
7926.6400	1.0181e-12	8.5778e-15
7927.8900	1.0176e-12	7.5615e-15
7929.1400	1.0104e-12	6.4345e-15
7930.3900	9.9884e-13	6.5256e-15
7931.6400	9.9758e-13	6.5870e-15
7932.8900	1.0109e-12	7.5849e-15
7934.1400	1.0142e-12	8.8741e-15
7935.3900	9.9965e-13	7.8938e-15
7936.6400	9.9467e-13	6.0618e-15
7937.8900	1.0099e-12	7.6907e-15
7939.1400	1.0152e-12	6.9304e-15
7940.3900	1.0132e-12	7.2220e-15
7941.6400	1.0062e-12	7.3225e-15
7942.8900	9.9246e-13	6.4261e-15
7944.1400	9.8502e-13	7.0775e-15
7945.3900	9.9356e-13	7.3938e-15
7946.6400	1.0093e-12	7.1309e-15
7947.8900	1.0145e-12	7.0490e-15
7949.1400	1.0147e-12	7.3025e-15
7950.3900	1.0152e-12	6.7899e-15
7951.6400	1.0153e-12	7.1290e-15
7952.8900	1.0136e-12	7.6934e-15
7954.1400	1.0144e-12	7.2563e-15
7955.3900	1.0131e-12	7.6916e-15
7956.6400	1.0138e-12	7.6921e-15
7957.8900	1.0132e-12	7.3241e-15
7959.1400	1.0125e-12	7.5042e-15
7960.3900	1.0118e-12	7.2337e-15
7961.6400	1.0111e-12	6.7466e-15
7962.8900	1.0108e-12	8.3754e-15
7964.1400	1.0107e-12	7.1625e-15
7965.3900	1.0121e-12	7.3220e-15
7966.6400	1.0124e-12	7.6910e-15
7967.8900	1.0103e-12	7.9935e-15
7969.1400	1.0095e-12	7.8404e-15
7970.3900	1.0106e-12	6.7441e-15
7971.6400	1.0111e-12	6.7709e-15
7972.8900	1.0104e-12	7.3620e-15
7974.1400	1.0095e-12	7.4026e-15
7975.3900	1.0093e-12	7.4042e-15
7976.6400	1.0091e-12	7.1403e-15
7977.8900	1.0086e-12	6.9032e-15
7979.1400	1.0088e-12	7.3777e-15
7980.3900	1.0096e-12	7.6777e-15
7981.6400	1.0095e-12	6.7630e-15
7982.8900	1.0095e-12	7.3990e-15
7984.1400	1.0071e-12	7.4504e-15
7985.3900	1.0071e-12	7.2513e-15
7986.6400	1.0067e-12	7.5770e-15
7987.8900	1.0072e-12	7.6610e-15
7989.1400	1.0072e-12	7.2033e-15
7990.3900	1.0065e-12	6.6551e-15
7991.6400	1.0052e-12	7.7667e-15
7992.8900	1.0028e-12	7.2414e-15
7994.1400	1.0031e-12	6.0387e-15
7995.3900	1.0045e-12	6.2723e-15
7996.6400	9.9737e-13	7.5000e-15
7997.8900	9.8415e-13	7.7962e-15
7999.1400	9.9129e-13	7.4709e-15
8000.3900	1.0015e-12	6.5818e-15
8001.6400	1.0024e-12	6.4532e-15
8002.8900	1.0034e-12	7.5421e-15
8004.1400	1.0038e-12	6.7703e-15
8005.3900	1.0030e-12	6.7512e-15
8006.6400	1.0025e-12	7.2308e-15
8007.8900	1.0019e-12	7.0655e-15
8009.1400	1.0005e-12	7.2089e-15
8010.3900	1.0015e-12	7.8339e-15
8011.6400	1.0017e-12	6.7154e-15
8012.8900	1.0006e-12	6.9239e-15
8014.1400	1.0007e-12	6.7337e-15
8015.3900	1.0018e-12	7.6742e-15
8016.6400	1.0008e-12	6.8404e-15
8017.8900	1.0005e-12	7.8119e-15
8019.1400	1.0011e-12	6.7964e-15
8020.3900	1.0006e-12	7.2213e-15
8021.6400	9.9969e-13	7.7885e-15
8022.8900	9.9770e-13	7.1400e-15
8024.1400	9.9655e-13	7.3074e-15
8025.3900	9.9372e-13	6.6570e-15
8026.6400	9.9050e-13	7.1322e-15
8027.8900	9.9255e-13	6.9273e-15
8029.1400	9.9629e-13	6.7755e-15
8030.3900	9.9672e-13	7.7724e-15
8031.6400	9.9626e-13	7.3571e-15
8032.8900	9.9589e-13	7.1932e-15
8034.1400	9.9449e-13	7.1896e-15
8035.3900	9.9462e-13	6.8475e-15
8036.6400	9.9569e-13	6.9832e-15
8037.8900	9.9504e-13	6.9128e-15
8039.1400	9.9425e-13	6.9726e-15
8040.3900	9.9421e-13	6.8255e-15
8041.6400	9.9439e-13	6.9444e-15
8042.8900	9.9169e-13	7.2684e-15
8044.1400	9.8042e-13	6.7085e-15
8045.3900	9.7245e-13	6.8359e-15
8046.6400	9.8074e-13	7.5956e-15
8047.8900	9.8552e-13	6.6728e-15
8049.1400	9.8725e-13	7.2519e-15
8050.3900	9.9018e-13	7.0495e-15
8051.6400	9.9048e-13	7.0040e-15
8052.8900	9.8854e-13	8.0107e-15
8054.1400	9.8802e-13	7.3434e-15
8055.3900	9.8907e-13	7.0189e-15
8056.6400	9.9026e-13	7.1353e-15
8057.8900	9.8925e-13	7.3564e-15
8059.1400	9.8878e-13	8.0422e-15
8060.3900	9.8904e-13	7.4309e-15
8061.6400	9.8950e-13	7.6742e-15
8062.8900	9.8976e-13	7.0937e-15
8064.1400	9.8778e-13	7.2659e-15
8065.3900	9.8705e-13	7.4848e-15
8066.6400	9.8812e-13	7.4712e-15
8067.8900	9.8591e-13	7.5265e-15
8069.1400	9.8372e-13	6.1252e-15
8070.3900	9.8315e-13	7.5414e-15
8071.6400	9.8296e-13	7.1150e-15
8072.8900	9.8377e-13	7.3219e-15
8074.1400	9.8413e-13	7.5469e-15
8075.3900	9.8536e-13	6.8929e-15
8076.6400	9.8564e-13	7.2689e-15
8077.8900	9.8533e-13	6.9567e-15
8079.1400	9.8379e-13	6.4228e-15
8080.3900	9.8289e-13	6.5617e-15
8081.6400	9.8265e-13	6.7165e-15
8082.8900	9.7597e-13	7.3189e-15
8084.1400	9.6837e-13	6.1840e-15
8085.3900	9.7539e-13	7.3518e-15
8086.6400	9.8134e-13	6.1514e-15
8087.8900	9.8220e-13	6.0907e-15
8089.1400	9.8145e-13	7.2767e-15
8090.3900	9.8002e-13	7.5737e-15
8091.6400	9.7647e-13	6.9357e-15
8092.8900	9.7564e-13	7.1646e-15
8094.1400	9.7930e-13	6.9969e-15
8095.3900	9.7969e-13	6.3933e-15
8096.6400	9.7262e-13	6.9011e-15
8097.8900	9.6869e-13	7.2375e-15
8099.1400	9.7450e-13	7.5568e-15
8100.3900	9.7923e-13	7.5508e-15
8101.6400	9.7999e-13	8.2650e-15
8102.8900	9.7959e-13	7.9419e-15
8104.1400	9.7861e-13	7.4559e-15
8105.3900	9.7860e-13	7.6333e-15
8106.6400	9.7844e-13	6.3434e-15
8107.8900	9.7876e-13	7.8123e-15
8109.1400	9.7686e-13	6.5598e-15
8110.3900	9.7654e-13	6.8874e-15
8111.6400	9.7664e-13	6.9989e-15
8112.8900	9.7653e-13	7.4145e-15
8114.1400	9.7570e-13	7.6307e-15
8115.3900	9.7452e-13	6.9096e-15
8116.6400	9.7439e-13	6.6640e-15
8117.8900	9.7499e-13	6.3503e-15
8119.1400	9.7421e-13	6.9658e-15
8120.3900	9.7457e-13	6.8367e-15
8121.6400	9.7466e-13	7.4746e-15
8122.8900	9.7314e-13	7.0903e-15
8124.1400	9.7323e-13	6.6276e-15
8125.3900	9.7288e-13	6.9377e-15
8126.6400	9.7139e-13	6.0066e-15
8127.8900	9.7335e-13	6.9492e-15
8129.1400	9.7391e-13	6.8502e-15
8130.3900	9.7202e-13	7.1167e-15
8131.6400	9.7079e-13	6.7237e-15
8132.8900	9.7233e-13	6.7570e-15
8134.1400	9.7238e-13	6.2135e-15
8135.3900	9.6858e-13	6.2307e-15
8136.6400	9.6840e-13	6.7242e-15
8137.8900	9.6968e-13	6.4129e-15
8139.1400	9.6996e-13	6.5210e-15
8140.3900	9.6836e-13	6.9614e-15
8141.6400	9.6631e-13	6.8322e-15
8142.8900	9.6924e-13	6.4710e-15
8144.1400	9.7010e-13	7.9619e-15
8145.3900	9.6866e-13	6.0190e-15
8146.6400	9.6806e-13	6.6415e-15
8147.8900	9.6613e-13	6.7213e-15
8149.1400	9.6647e-13	7.0782e-15
8150.3900	9.6738e-13	6.9160e-15
8151.6400	9.6778e-13	6.7824e-15
8152.8900	9.6826e-13	7.0437e-15
8154.1400	9.6198e-13	5.9925e-15
8155.3900	9.6408e-13	6.7745e-15
8156.6400	9.6776e-13	7.1623e-15
8157.8900	9.6574e-13	5.1002e-15
8159.1400	9.6228e-13	7.9018e-15
8160.3900	9.6894e-13	6.4841e-15
8161.6400	9.6647e-13	6.4221e-15
8162.8900	9.5743e-13	6.7095e-15
8164.1400	9.5487e-13	6.3817e-15
8165.3900	9.6273e-13	6.7350e-15
8166.6400	9.6149e-13	8.1270e-15
8167.8900	9.6673e-13	7.0366e-15
8169.1400	9.6448e-13	6.6651e-15
8170.3900	9.5772e-13	7.0521e-15
8171.6400	9.5405e-13	5.9374e-15
8172.8900	9.6083e-13	6.5444e-15
8174.1400	9.6216e-13	6.5910e-15
8175.3900	9.6220e-13	6.9138e-15
8176.6400	9.5912e-13	6.1320e-15
8177.8900	9.6401e-13	7.1608e-15
8179.1400	9.5713e-13	7.1370e-15
8180.3900	9.4856e-13	6.1880e-15
8181.6400	9.2462e-13	5.7102e-15
8182.8900	9.2331e-13	7.1379e-15
8184.1400	9.4948e-13	7.2979e-15
8185.3900	9.5914e-13	6.1956e-15
8186.6400	9.5971e-13	6.6301e-15
8187.8900	9.5861e-13	5.8640e-15
8189.1400	9.5716e-13	5.3017e-15
8190.3900	9.5097e-13	8.8926e-15
8191.6400	9.5195e-13	9.0571e-15
8192.8910	9.2487e-13	5.5876e-15
8194.1410	9.1137e-13	5.6474e-15
8195.3910	9.4022e-13	6.7458e-15
8196.6410	9.5855e-13	6.3974e-15
8197.8910	9.5187e-13	6.1215e-15
8199.1410	9.3880e-13	6.6310e-15
8200.3910	9.3988e-13	6.6083e-15
8201.6410	9.4584e-13	6.2641e-15
8202.8910	9.5297e-13	6.7008e-15
8204.1410	9.5514e-13	6.6021e-15
8205.3910	9.5278e-13	6.9456e-15
8206.6410	9.4988e-13	6.9910e-15
8207.8910	9.5113e-13	6.6585e-15
8209.1410	9.5252e-13	7.4718e-15
8210.3910	9.4533e-13	6.3770e-15
8211.6410	9.2851e-13	5.9823e-15
8212.8910	9.3107e-13	7.4797e-15
8214.1410	9.4449e-13	7.1364e-15
8215.3910	9.4919e-13	5.7642e-15
8216.6410	9.5119e-13	6.4165e-15
8217.8910	9.4033e-13	6.9629e-15
8219.1410	9.2161e-13	6.4283e-15
8220.3910	9.3176e-13	7.3287e-15
8221.6410	9.4731e-13	6.8777e-15
8222.8910	9.4832e-13	6.4607e-15
8224.1410	9.5000e-13	6.6044e-15
8225.3910	9.4433e-13	6.3174e-15
8226.6410	9.4302e-13	5.6104e-15
8227.8910	9.4285e-13	6.0956e-15
8229.1410	9.4274e-13	5.7931e-15
8230.3910	9.4177e-13	7.5800e-15
8231.6410	9.4050e-13	6.4082e-15
8232.8910	9.3567e-13	7.0246e-15
8234.1410	9.4272e-13	6.6787e-15
8235.3910	9.4063e-13	7.3056e-15
8236.6410	9.4442e-13	6.2524e-15
8237.8910	9.4406e-13	7.1250e-15
8239.1410	9.4465e-13	7.7148e-15
8240.3910	9.4484e-13	7.4632e-15
8241.6410	9.4443e-13	7.1662e-15
8242.8910	9.4349e-13	5.9507e-15
8244.1410	9.4514e-13	6.2690e-15
8245.3910	9.4114e-13	6.8547e-15
8246.6410	9.3409e-13	6.6798e-15
8247.8910	9.2785e-13	6.8132e-15
8249.1410	9.3594e-13	6.7516e-15
8250.3910	9.4263e-13	5.9809e-15
8251.6410	9.4400e-13	7.1636e-15
8252.8910	9.4034e-13	6.9538e-15
8254.1410	9.3789e-13	6.9178e-15
8255.3910	9.4449e-13	7.2101e-15
8256.6410	9.4321e-13	6.3235e-15
8257.8910	9.3233e-13	7.4325e-15
8259.1410	9.3573e-13	6.7081e-15
8260.3910	9.4026e-13	7.0652e-15
8261.6410	9.3890e-13	6.5988e-15
8262.8910	9.3875e-13	7.1354e-15
8264.1410	9.3921e-13	6.1604e-15
8265.3910	9.3826e-13	6.3594e-15
8266.6410	9.3926e-13	6.4463e-15
8267.8910	9.3892e-13	6.3615e-15
8269.1410	9.3906e-13	7.1821e-15
8270.3910	9.3803e-13	6.6488e-15
8271.6410	9.3689e-13	6.9677e-15
8272.8910	9.3697e-13	5.4756e-15
8274.1410	9.3235e-13	6.5634e-15
8275.3910	9.3507e-13	7.6348e-15
8276.6410	9.3618e-13	6.2509e-15
8277.8910	9.3123e-13	5.8563e-15
8279.1410	9.3215e-13	6.2908e-15
8280.3910	9.3457e-13	7.0110e-15
8281.6410	9.3096e-13	5.8062e-15
8282.8910	9.3361e-13	6.8796e-15
8284.1410	9.3376e-13	6.7380e-15
8285.3910	9.3507e-13	7.6082e-15
8286.6410	9.3877e-13	7.1747e-15
8287.8910	9.3584e-13	6.5072e-15
8289.1410	9.2364e-13	6.2607e-15
8290.3910	9.2942e-13	6.8819e-15
8291.6410	9.3034e-13	6.3859e-15
8292.8910	9.3180e-13	6.3345e-15
8294.1410	9.3091e-13	6.6344e-15
8295.3910	9.2629e-13	6.8048e-15
8296.6410	9.2864e-13	6.7209e-15
8297.8910	9.3183e-13	6.8056e-15
8299.1410	9.3459e-13	7.2769e-15
8300.3910	9.3358e-13	5.9143e-15
8301.6410	9.2661e-13	6.5043e-15
8302.8910	9.2856e-13	6.4130e-15
8304.1410	9.2996e-13	6.4705e-15
8305.3910	9.2604e-13	6.9722e-15
8306.6410	9.2284e-13	5.9101e-15
8307.8910	9.2557e-13	5.8471e-15
8309.1410	9.2375e-13	7.0224e-15
8310.3910	9.2656e-13	6.7780e-15
8311.6410	9.2914e-13	6.2843e-15
8312.8910	9.2972e-13	5.9171e-15
8314.1410	9.2943e-13	6.7832e-15
8315.3910	9.2820e-13	6.1863e-15
8316.6410	9.2945e-13	6.0994e-15
8317.8910	9.2551e-13	6.9720e-15
8319.1410	9.2678e-13	7.5770e-15
8320.3910	9.3141e-13	7.2067e-15
8321.6410	9.2837e-13	7.3931e-15
8322.8910	9.1880e-13	7.5149e-15
8324.1410	9.1912e-13	7.0431e-15
8325.3910	9.0094e-13	6.8377e-15
8326.6410	8.9869e-13	6.4448e-15
8327.8910	9.1870e-13	5.8801e-15
8329.1410	9.2248e-13	6.6549e-15
8330.3910	9.1329e-13	4.1205e-15
8331.6410	9.1191e-13	6.3342e-15
8332.8910	9.1314e-13	6.7279e-15
8334.1410	9.0721e-13	5.8192e-15
8335.3910	9.1414e-13	6.7737e-15
8336.6410	9.2038e-13	6.5754e-15
8337.8910	9.1700e-13	6.9546e-15
8339.1410	9.1668e-13	6.4846e-15
8340.3910	9.1762e-13	6.4199e-15
8341.6410	9.2179e-13	7.0321e-15
8342.8910	9.2018e-13	6.0994e-15
8344.1410	9.1301e-13	6.6943e-15
8345.3910	9.0743e-13	7.1898e-15
8346.6410	9.1618e-13	6.4934e-15
8347.8910	9.2124e-13	5.3449e-15
8349.1410	9.2253e-13	6.4068e-15
8350.3910	9.2161e-13	6.2747e-15
8351.6410	9.2142e-13	6.5639e-15
8352.8910	9.2378e-13	6.7829e-15
8354.1410	9.2267e-13	6.2437e-15
8355.3910	9.2197e-13	5.9986e-15
8356.6410	9.1993e-13	5.9874e-15
8357.8910	9.1940e-13	5.9447e-15
8359.1410	9.1796e-13	6.3158e-15
8360.3910	9.1944e-13	6.0657e-15
8361.6410	9.1977e-13	6.6434e-15
8362.8910	9.1788e-13	7.4780e-15
8364.1410	9.1567e-13	6.5765e-15
8365.3910	9.1680e-13	5.8873e-15
8366.6410	9.1935e-13	6.4166e-15
8367.8910	9.1975e-13	6.5790e-15
8369.1410	9.1827e-13	6.6266e-15
8370.3910	9.1865e-13	6.7609e-15
8371.6410	9.1900e-13	6.2922e-15
8372.8910	9.1762e-13	6.8382e-15
8374.1410	9.1784e-13	6.5971e-15
8375.3910	9.1670e-13	6.6079e-15
8376.6410	9.1656e-13	6.8823e-15
8377.8910	9.1632e-13	6.8997e-15
8379.1410	9.1703e-13	6.3571e-15
8380.3910	9.1632e-13	6.5709e-15
8381.6410	9.1487e-13	7.0736e-15
8382.8910	9.1663e-13	6.4334e-15
8384.1410	9.1557e-13	6.6227e-15
8385.3910	9.0346e-13	6.9074e-15
8386.6410	8.8486e-13	6.3731e-15
8387.8910	8.9442e-13	5.9771e-15
8389.1410	9.1275e-13	5.6159e-15
8390.3910	9.1467e-13	5.9771e-15
8391.6410	9.1530e-13	6.4250e-15
8392.8910	9.1492e-13	6.7254e-15
8394.1410	9.1461e-13	6.5760e-15
8395.3910	9.1221e-13	6.5720e-15
8396.6410	9.1344e-13	7.1053e-15
8397.8910	9.1441e-13	6.7677e-15
8399.1410	9.1422e-13	6.6019e-15
8400.3910	9.1479e-13	7.5937e-15
8401.6410	9.1347e-13	7.2946e-15
8402.8910	9.1350e-13	6.6029e-15
8404.1410	9.1243e-13	6.6264e-15
8405.3910	9.1185e-13	7.2680e-15
8406.6410	9.1238e-13	6.7455e-15
8407.8910	9.1242e-13	7.0070e-15
8409.1410	9.1108e-13	6.3025e-15
8410.3910	9.0895e-13	7.5163e-15
8411.6410	9.0751e-13	6.6378e-15
8412.8910	9.0863e-13	6.1420e-15
8414.1410	9.1005e-13	6.9770e-15
8415.3910	9.0992e-13	6.7061e-15
8416.6410	9.0961e-13	6.1873e-15
8417.8910	9.0916e-13	7.0092e-15
8419.1410	9.0945e-13	6.5367e-15
8420.3910	9.1008e-13	6.7335e-15
8421.6410	9.0867e-13	6.4479e-15
8422.8910	9.0748e-13	6.7040e-15
8424.1410	9.0663e-13	6.9986e-15
8425.3910	9.0495e-13	6.3911e-15
8426.6410	9.0748e-13	5.7176e-15
8427.8910	9.0863e-13	6.2189e-15
8429.1410	9.0888e-13	7.6685e-15
8430.3910	9.0917e-13	6.8664e-15
8431.6410	9.0862e-13	6.0622e-15
8432.8910	9.0185e-13	6.9968e-15
8434.1410	8.9479e-13	7.4572e-15
8435.3910	8.9883e-13	6.7635e-15
8436.6410	9.0297e-13	6.4640e-15
8437.8910	8.9974e-13	5.9390e-15
8439.1410	9.0080e-13	7.2583e-15
8440.3910	9.0549e-13	6.8826e-15
8441.6410	9.0531e-13	6.4177e-15
8442.8910	9.0301e-13	6.0163e-15
8444.1410	8.9412e-13	5.5102e-15
8445.3910	8.8332e-13	5.5940e-15
8446.6410	8.9199e-13	6.8971e-15
8447.8910	9.0386e-13	7.4109e-15
8449.1410	9.0594e-13	7.2286e-15
8450.3910	9.0545e-13	6.8577e-15
8451.6410	9.0503e-13	7.1633e-15
8452.8910	9.0578e-13	7.2418e-15
8454.1410	9.0605e-13	6.8122e-15
8455.3910	9.0390e-13	6.7218e-15
8456.6410	9.0488e-13	6.8172e-15
8457.8910	9.0399e-13	6.2468e-15
8459.1410	9.0279e-13	6.9332e-15
8460.3910	9.0412e-13	6.9070e-15
8461.6410	9.0248e-13	6.5530e-15
8462.8910	9.0037e-13	5.6762e-15
8464.1410	8.9917e-13	6.1392e-15
8465.3910	8.9493e-13	6.2510e-15
8466.6410	8.8315e-13	6.9404e-15
8467.8910	8.7865e-13	6.5180e-15
8469.1410	8.9203e-13	7.4171e-15
8470.3910	8.9847e-13	6.4507e-15
8471.6410	8.9995e-13	6.6547e-15
8472.8910	8.9979e-13	6.7617e-15
8474.1410	9.0090e-13	6.9141e-15
8475.3910	9.0109e-13	6.0201e-15
8476.6410	9.0205e-13	6.7769e-15
8477.8910	9.0151e-13	7.1339e-15
8479.1410	9.0068e-13	5.9073e-15
8480.3910	9.0075e-13	7.0366e-15
8481.6410	9.0072e-13	7.3278e-15
8482.8910	9.0066e-13	6.8011e-15
8484.1410	9.0028e-13	6.0594e-15
8485.3910	8.9923e-13	6.7920e-15
8486.6410	8.9968e-13	6.9154e-15
8487.8910	8.9989e-13	6.3434e-15
8489.1410	8.9796e-13	6.5606e-15
8490.3910	8.9652e-13	6.2968e-15
8491.6410	8.9511e-13	6.8403e-15
8492.8910	8.9174e-13	5.7249e-15
8494.1410	8.7963e-13	6.4287e-15
8495.3910	8.2008e-13	6.3557e-15
8496.6410	7.2178e-13	6.3179e-15
8497.8910	7.4556e-13	5.2889e-15
8499.1410	8.4388e-13	4.5685e-15
8500.3910	8.7318e-13	5.9823e-15
8501.6410	8.7690e-13	5.7129e-15
8502.8910	8.8638e-13	6.9551e-15
8504.1410	8.9000e-13	7.4717e-15
8505.3910	8.9245e-13	6.8135e-15
8506.6410	8.9350e-13	6.5635e-15
8507.8910	8.9345e-13	7.0993e-15
8509.1410	8.9397e-13	6.7382e-15
8510.3910	8.9305e-13	6.6749e-15
8511.6410	8.8624e-13	6.6390e-15
8512.8910	8.7189e-13	6.7026e-15
8514.1410	8.7354e-13	6.7036e-15
8515.3910	8.8758e-13	6.0941e-15
8516.6410	8.9228e-13	6.7772e-15
8517.8910	8.9235e-13	5.3332e-15
8519.1410	8.9280e-13	7.4414e-15
8520.3910	8.9351e-13	7.2049e-15
8521.6410	8.9274e-13	6.7447e-15
8522.8910	8.9219e-13	6.4368e-15
8524.1410	8.8981e-13	7.0223e-15
8525.3910	8.8709e-13	5.9508e-15
8526.6410	8.8726e-13	6.7606e-15
8527.8910	8.8818e-13	6.9368e-15
8529.1410	8.8762e-13	6.4000e-15
8530.3910	8.8632e-13	7.2202e-15
8531.6410	8.8390e-13	6.3735e-15
8532.8910	8.8014e-13	6.3191e-15
8534.1410	8.7225e-13	5.4259e-15
8535.3910	8.6104e-13	6.5360e-15
8536.6410	8.4832e-13	6.2050e-15
8537.8910	8.1282e-13	6.2569e-15
8539.1410	7.2291e-13	5.8337e-15
8540.3910	5.8025e-13	3.9875e-15
8541.6410	5.5886e-13	3.9224e-15
8542.8910	6.9079e-13	5.0028e-15
8544.1410	7.9696e-13	5.0762e-15
8545.3910	8.3790e-13	6.6037e-15
8546.6410	8.5698e-13	6.5906e-15
8547.8910	8.6701e-13	6.3341e-15
8549.1410	8.7322e-13	6.7631e-15
8550.3910	8.7652e-13	6.1298e-15
8551.6410	8.7863e-13	6.2687e-15
8552.8910	8.8014e-13	6.3676e-15
8554.1410	8.7683e-13	6.5469e-15
8555.3910	8.6497e-13	6.7579e-15
8556.6410	8.6986e-13	7.1905e-15
8557.8910	8.8097e-13	6.0128e-15
8559.1410	8.8429e-13	7.1101e-15
8560.3910	8.8465e-13	6.7683e-15
8561.6410	8.8535e-13	6.7131e-15
8562.8910	8.8421e-13	6.5873e-15
8564.1410	8.8467e-13	6.8996e-15
8565.3910	8.8476e-13	6.6897e-15
8566.6410	8.8340e-13	6.4151e-15
8567.8910	8.8432e-13	6.6771e-15
8569.1410	8.8409e-13	6.3716e-15
8570.3910	8.8173e-13	6.3779e-15
8571.6410	8.8209e-13	5.9540e-15
8572.8910	8.8294e-13	5.8027e-15
8574.1410	8.8357e-13	7.6312e-15
8575.3910	8.8370e-13	6.6942e-15
8576.6410	8.8319e-13	7.3314e-15
8577.8910	8.8207e-13	6.3583e-15
8579.1410	8.8134e-13	6.4335e-15
8580.3910	8.7725e-13	6.6708e-15
8581.6410	8.7535e-13	6.5218e-15
8582.8910	8.7846e-13	6.9493e-15
8584.1410	8.7800e-13	6.8093e-15
8585.3910	8.7780e-13	6.6345e-15
8586.6410	8.7735e-13	6.0317e-15
8587.8910	8.7806e-13	6.8607e-15
8589.1410	8.7805e-13	6.7737e-15
8590.3910	8.7643e-13	6.8798e-15
8591.6410	8.7238e-13	6.9181e-15
8592.8910	8.7137e-13	6.6721e-15
8594.1410	8.6651e-13	6.7080e-15
8595.3910	8.6105e-13	6.2475e-15
8596.6410	8.5890e-13	6.6126e-15
8597.8910	8.5969e-13	6.2320e-15
8599.1410	8.6583e-13	6.9056e-15
8600.3910	8.7044e-13	6.2917e-15
8601.6410	8.7257e-13	6.9007e-15
8602.8910	8.7294e-13	6.9572e-15
8604.1410	8.7366e-13	6.3193e-15
8605.3910	8.7416e-13	6.1791e-15
8606.6410	8.7334e-13	5.9701e-15
8607.8910	8.7372e-13	6.8395e-15
8609.1410	8.7013e-13	5.7432e-15
8610.3910	8.6208e-13	6.1990e-15
8611.6410	8.6493e-13	6.2718e-15
8612.8910	8.7267e-13	6.4053e-15
8614.1410	8.7375e-13	5.7626e-15
8615.3910	8.7471e-13	6.4729e-15
8616.6410	8.7494e-13	6.7217e-15
8617.8910	8.7590e-13	6.1754e-15
8619.1410	8.7406e-13	6.1632e-15
8620.3910	8.7009e-13	6.6252e-15
8621.6410	8.7155e-13	6.9093e-15
8622.8910	8.7556e-13	6.7415e-15
8624.1410	8.7541e-13	6.9161e-15
8625.3910	8.7533e-13	6.4398e-15
8626.6410	8.7499e-13	6.9413e-15
8627.8910	8.7522e-13	6.5695e-15
8629.1410	8.7594e-13	6.2489e-15
8630.3910	8.7477e-13	7.1933e-15
8631.6410	8.7475e-13	7.0013e-15
8632.8910	8.7364e-13	6.6775e-15
8634.1410	8.7350e-13	6.3947e-15
8635.3910	8.7337e-13	6.9962e-15
8636.6410	8.7520e-13	6.2889e-15
8637.8910	8.7354e-13	7.3031e-15
8639.1410	8.7298e-13	5.9833e-15
8640.3910	8.7339e-13	5.8922e-15
8641.6410	8.7357e-13	5.6264e-15
8642.8910	8.7180e-13	6.0927e-15
8644.1410	8.7141e-13	6.7411e-15
8645.3910	8.6757e-13	7.0271e-15
8646.6410	8.5444e-13	6.2536e-15
8647.8910	8.4871e-13	5.2726e-15
8649.1410	8.6081e-13	6.0896e-15
8650.3910	8.6729e-13	6.4684e-15
8651.6410	8.6571e-13	7.3470e-15
8652.8910	8.6247e-13	6.5909e-15
8654.1410	8.5823e-13	5.6889e-15
8655.3910	8.5416e-13	5.7778e-15
8656.6410	8.4345e-13	5.7257e-15
8657.8910	8.1942e-13	5.7546e-15
8659.1410	7.4552e-13	6.3599e-15
8660.3910	6.1558e-13	6.9618e-15
8661.6410	5.8466e-13	2.9787e-15
8662.8910	7.0195e-13	3.7038e-15
8664.1410	7.9396e-13	4.9001e-15
8665.3910	8.2544e-13	5.6199e-15
8666.6410	8.3980e-13	6.0517e-15
8667.8910	8.4787e-13	5.7990e-15
8669.1410	8.5215e-13	6.8609e-15
8670.3910	8.5396e-13	5.9966e-15
8671.6410	8.5562e-13	6.3019e-15
8672.8910	8.4901e-13	6.5901e-15
8674.1410	8.4641e-13	5.8726e-15
8675.3910	8.5650e-13	5.9102e-15
8676.6410	8.6183e-13	6.4189e-15
8677.8910	8.5957e-13	6.7213e-15
8679.1410	8.5850e-13	6.1157e-15
8680.3910	8.6047e-13	6.9168e-15
8681.6410	8.6323e-13	7.3474e-15
8682.8910	8.6320e-13	7.2602e-15
8684.1410	8.6242e-13	6.2086e-15
8685.3910	8.5584e-13	6.8823e-15
8686.6410	8.3812e-13	6.0580e-15
8687.8910	8.2968e-13	6.6320e-15
8689.1410	8.5092e-13	6.3564e-15
8690.3910	8.6289e-13	5.0362e-15
8691.6410	8.6265e-13	5.8498e-15
8692.8910	8.6024e-13	7.1638e-15
8694.1410	8.6133e-13	6.9463e-15
8695.3910	8.6288e-13	6.9368e-15
8696.6410	8.6207e-13	6.1185e-15
8697.8910	8.5898e-13	6.5489e-15
8699.1410	8.5990e-13	6.3319e-15
8700.3910	8.6220e-13	6.5386e-15
8701.6410	8.6255e-13	6.2986e-15
8702.8910	8.6235e-13	7.6172e-15
8704.1410	8.6252e-13	7.1050e-15
8705.3910	8.6231e-13	6.2720e-15
8706.6410	8.6252e-13	6.4572e-15
8707.8910	8.5887e-13	6.3657e-15
8709.1410	8.5420e-13	5.8659e-15
8710.3910	8.5331e-13	5.6201e-15
8711.6410	8.5249e-13	5.6216e-15
8712.8910	8.5565e-13	5.6557e-15
8714.1410	8.5920e-13	6.5857e-15
8715.3910	8.5629e-13	5.5873e-15
8716.6410	8.5155e-13	6.9909e-15
8717.8910	8.5406e-13	5.9635e-15
8719.1410	8.5735e-13	5.5103e-15
8720.3910	8.5955e-13	5.7908e-15
8721.6410	8.5909e-13	6.5561e-15
8722.8910	8.5789e-13	6.9695e-15
8724.1410	8.5672e-13	5.8338e-15
8725.3910	8.5252e-13	6.4350e-15
8726.6410	8.4519e-13	6.3365e-15
8727.8910	8.4582e-13	6.0075e-15
8729.1410	8.5352e-13	6.1161e-15
8730.3910	8.5432e-13	6.3499e-15
8731.6410	8.5406e-13	6.6469e-15
8732.8910	8.4979e-13	6.7924e-15
8734.1410	8.3729e-13	5.9070e-15
8735.3910	8.3185e-13	6.0277e-15
8736.6410	8.4294e-13	6.3107e-15
8737.8910	8.5045e-13	6.9724e-15
8739.1410	8.4831e-13	6.5012e-15
8740.3910	8.3903e-13	5.5874e-15
8741.6410	8.3290e-13	5.6676e-15
8742.8910	8.3901e-13	6.3749e-15
8744.1410	8.4316e-13	5.4143e-15
8745.3910	8.4018e-13	5.8557e-15
8746.6410	8.3430e-13	5.6219e-15
8747.8910	8.2687e-13	6.6233e-15
8749.1410	8.1600e-13	5.3379e-15
8750.3910	8.0868e-13	5.8013e-15
8751.6410	8.1665e-13	6.5932e-15
8752.8910	8.3244e-13	6.3035e-15
8754.1410	8.3951e-13	7.0808e-15
8755.3910	8.3520e-13	6.7691e-15
8756.6410	8.3419e-13	6.2628e-15
8757.8910	8.4294e-13	6.1656e-15
8759.1410	8.4594e-13	6.0719e-15
8760.3910	8.4626e-13	5.6818e-15
8761.6410	8.4376e-13	6.7716e-15
8762.8910	8.3924e-13	5.8153e-15
8764.1410	8.4202e-13	6.0800e-15
8765.3910	8.4712e-13	5.1772e-15
8766.6410	8.4813e-13	6.1294e-15
8767.8910	8.4962e-13	7.0004e-15
8769.1410	8.4989e-13	6.1673e-15
8770.3910	8.4590e-13	5.0537e-15
8771.6410	8.3938e-13	5.6728e-15
8772.8910	8.3636e-13	5.6507e-15
8774.1410	8.4396e-13	5.8568e-15
8775.3910	8.4815e-13	5.4612e-15
8776.6410	8.4891e-13	5.2686e-15
8777.8910	8.4818e-13	6.5171e-15
8779.1410	8.4795e-13	6.6899e-15
8780.3910	8.4780e-13	5.6328e-15
8781.6410	8.4793e-13	6.5000e-15
8782.8910	8.4823e-13	7.7990e-15
8784.1410	8.4704e-13	5.9859e-15
8785.3910	8.4713e-13	5.9503e-15
8786.6410	8.4674e-13	6.3166e-15
8787.8910	8.4164e-13	6.3981e-15
8789.1410	8.3310e-13	5.9401e-15
8790.3910	8.3415e-13	5.8864e-15
8791.6410	8.3383e-13	5.3521e-15
8792.8910	8.3365e-13	4.6856e-15
8794.1410	8.4165e-13	6.1947e-15
8795.3910	8.4461e-13	5.2498e-15
8796.6410	8.4403e-13	5.3688e-15
8797.8910	8.4436e-13	5.5616e-15
8799.1410	8.4407e-13	5.6555e-15
8800.3910	8.4383e-13	5.9056e-15
8801.6410	8.4284e-13	6.9850e-15
8802.8910	8.3637e-13	6.5242e-15
8804.1410	8.1372e-13	6.4390e-15
8805.3910	7.7354e-13	5.1071e-15
8806.6410	7.8504e-13	5.0838e-15
8807.8910	8.2737e-13	5.8593e-15
8809.1410	8.3863e-13	6.0998e-15
8810.3910	8.4060e-13	6.4845e-15
8811.6410	8.4030e-13	5.5706e-15
8812.8910	8.3961e-13	6.0119e-15
8814.1410	8.3947e-13	7.3594e-15
8815.3910	8.3893e-13	7.1081e-15
8816.6410	8.3883e-13	6.8275e-15
8817.8910	8.4010e-13	5.8537e-15
8819.1410	8.3771e-13	6.1397e-15
8820.3910	8.3631e-13	6.1007e-15
8821.6410	8.2781e-13	5.9916e-15
8822.8910	8.1075e-13	6.2535e-15
8824.1410	8.1582e-13	5.1606e-15
8825.3910	8.3213e-13	6.2852e-15
8826.6410	8.3579e-13	6.0267e-15
8827.8910	8.3644e-13	5.7817e-15
8829.1410	8.3470e-13	5.6033e-15
8830.3910	8.3443e-13	6.2187e-15
8831.6410	8.3374e-13	6.7133e-15
8832.8910	8.3192e-13	6.1075e-15
8834.1410	8.3275e-13	6.9598e-15
8835.3910	8.2901e-13	6.6858e-15
8836.6410	8.2329e-13	5.8314e-15
8837.8910	8.2215e-13	6.3365e-15
8839.1410	8.2820e-13	5.8405e-15
8840.3910	8.3025e-13	5.3761e-15
8841.6410	8.2970e-13	5.8865e-15
8842.8910	8.2888e-13	6.6522e-15
8844.1410	8.2723e-13	6.2202e-15
8845.3910	8.2616e-13	6.2991e-15
8846.6410	8.2657e-13	6.5998e-15
8847.8910	8.2631e-13	5.2577e-15
8849.1410	8.2598e-13	6.4652e-15
8850.3910	8.2509e-13	7.2839e-15
8851.6410	8.2241e-13	6.2227e-15
8852.8910	8.2170e-13	4.7331e-15
8854.1410	8.2005e-13	5.3915e-15
8855.3910	8.1812e-13	5.9530e-15
8856.6410	8.1463e-13	5.9146e-15
8857.8910	8.0914e-13	5.8637e-15
8859.1410	8.0155e-13	5.8068e-15
8860.3910	7.8875e-13	5.2787e-15
8861.6410	7.7878e-13	5.4281e-15
8862.8910	7.8547e-13	5.6507e-15
8864.1410	7.9382e-13	5.2762e-15
8865.3910	7.9291e-13	5.0810e-15
8866.6410	7.9847e-13	5.7713e-15
8867.8910	8.0950e-13	5.4341e-15
8869.1410	8.1535e-13	6.3076e-15
8870.3910	8.1836e-13	5.2586e-15
8871.6410	8.1947e-13	6.3710e-15
8872.8910	8.1755e-13	5.8995e-15
8874.1410	8.1821e-13	5.6112e-15
8875.3910	8.2022e-13	5.4566e-15
8876.6410	8.1980e-13	6.2818e-15
8877.8910	8.2185e-13	6.1134e-15
8879.1410	8.2264e-13	5.5901e-15
8880.3910	8.2155e-13	5.3786e-15
8881.6410	8.2127e-13	6.3315e-15
8882.8910	8.2102e-13	5.8204e-15
8884.1410	8.2191e-13	5.9855e-15
8885.3910	8.2361e-13	6.9226e-15
8886.6410	8.2413e-13	5.7995e-15
8887.8910	8.2418e-13	5.7297e-15
8889.1410	8.2296e-13	6.0995e-15
8890.3910	8.2018e-13	5.6811e-15
8891.6410	8.1727e-13	5.5874e-15
8892.8910	8.1977e-13	6.1839e-15
8894.1410	8.2264e-13	5.5084e-15
8895.3910	8.2337e-13	5.7148e-15
8896.6410	8.2292e-13	6.1796e-15
8897.8910	8.2064e-13	5.6585e-15
8899.1410	8.2169e-13	5.0526e-15
8900.3910	8.2320e-13	5.5844e-15
8901.6410	8.2244e-13	5.2555e-15
8902.8910	8.2327e-13	5.0593e-15
8904.1410	8.2295e-13	5.5637e-15
8905.3910	8.2370e-13	5.9821e-15
8906.6410	8.2268e-13	5.7631e-15
8907.8910	8.2206e-13	5.8721e-15
8909.1410	8.1768e-13	6.5819e-15
8910.3910	8.0347e-13	5.5002e-15
8911.6410	8.0137e-13	5.5715e-15
8912.8910	8.1614e-13	6.0944e-15
8914.1410	8.2302e-13	6.2141e-15
8915.3910	8.2210e-13	6.1261e-15
8916.6410	8.2192e-13	5.3532e-15
8917.8910	8.1959e-13	5.4595e-15
8919.1410	8.1891e-13	5.9414e-15
8920.3910	8.1992e-13	7.0501e-15
8921.6410	8.1772e-13	6.2408e-15
8922.8910	8.1491e-13	6.9865e-15
8924.1410	8.1621e-13	8.0828e-15
8925.3910	7.9958e-13	4.4149e-15
8926.6410	7.9176e-13	6.2867e-15
8927.8910	8.0825e-13	6.7395e-15
8929.1410	8.1850e-13	6.2573e-15
8930.3910	8.1768e-13	5.2422e-15
8931.6410	8.1632e-13	6.0875e-15
8932.8910	8.1854e-13	6.5870e-15
8934.1410	8.1821e-13	5.2570e-15
8935.3910	8.1634e-13	6.4581e-15
8936.6410	8.1670e-13	7.0700e-15
8937.8910	8.1759e-13	6.1026e-15
8939.1410	8.1723e-13	6.2691e-15
8940.3910	8.1652e-13	5.5610e-15
8941.6410	8.1363e-13	6.1107e-15
8942.8910	8.1141e-13	6.4271e-15
8944.1410	8.1063e-13	6.3956e-15
8945.3910	8.1265e-13	5.6210e-15
8946.6410	8.1447e-13	5.5320e-15
8947.8910	8.0976e-13	5.0174e-15
8949.1410	8.1137e-13	5.4391e-15
8950.3910	8.1599e-13	5.5289e-15
8951.6410	8.1746e-13	6.3634e-15
8952.8910	8.1478e-13	5.4102e-15
8954.1410	8.1633e-13	4.7793e-15
8955.3910	8.0836e-13	6.4653e-15
8956.6410	8.0775e-13	6.1807e-15
8957.8910	8.1468e-13	5.8116e-15
8959.1410	8.1305e-13	5.4145e-15
8960.3910	8.1562e-13	5.7606e-15
8961.6410	8.2300e-13	5.3061e-15
8962.8910	8.1641e-13	5.7058e-15
8964.1410	8.0633e-13	6.6270e-15
8965.3910	8.1098e-13	6.3235e-15
8966.6410	8.0277e-13	6.6727e-15
8967.8910	8.0322e-13	5.4704e-15
8969.1410	8.1438e-13	6.2704e-15
8970.3910	8.2184e-13	5.6713e-15
8971.6410	8.1798e-13	6.1842e-15
8972.8910	8.0307e-13	5.9116e-15
8974.1410	8.0515e-13	5.7104e-15
8975.3910	8.0172e-13	6.6406e-15
8976.6410	8.0483e-13	5.7815e-15
8977.8910	8.0946e-13	5.2968e-15
8979.1410	8.2103e-13	6.7089e-15
8980.3910	8.2324e-13	7.3873e-15
8981.6410	7.9540e-13	6.4643e-15
8982.8910	7.9901e-13	5.0436e-15
8984.1410	8.1014e-13	5.3886e-15
8985.3910	8.1928e-13	5.4302e-15
8986.6410	8.2616e-13	6.3656e-15
8987.8910	8.0834e-13	6.3749e-15
8989.1410	7.9848e-13	7.1376e-15
8990.3910	8.1743e-13	9.1443e-15
8991.6410	8.0552e-13	5.8831e-15
8992.8910	7.7510e-13	8.0396e-15
8994.1410	7.9015e-13	5.7644e-15
8995.3910	8.0547e-13	5.3786e-15
8996.6410	8.0177e-13	5.7232e-15
8997.8910	7.9264e-13	5.4168e-15
8999.1410	8.0464e-13	6.6875e-15
9000.3910	8.1423e-13	6.0113e-15
9001.6410	7.8641e-13	4.6741e-15
9002.8910	7.9988e-13	4.7561e-15
9004.1410	7.9802e-13	6.2896e-15
9005.3910	7.8772e-13	6.4322e-15
9006.6410	7.9275e-13	6.2754e-15
9007.8910	7.8334e-13	5.8520e-15
9009.1410	7.7608e-13	5.9316e-15
9010.3910	7.8117e-13	5.8271e-15
9011.6410	7.7175e-13	5.9654e-15
9012.8910	7.3949e-13	5.7313e-15
9014.1410	7.4082e-13	5.0942e-15
9015.3910	7.7843e-13	5.6466e-15
9016.6410	7.9162e-13	7.2990e-15
9017.8910	7.5664e-13	5.5910e-15
9019.1410	7.7140e-13	5.6791e-15
9020.3910	7.9055e-13	5.0756e-15
9021.6410	8.0240e-13	4.8340e-15
9022.8910	8.0322e-13	6.5195e-15
9024.1410	8.0304e-13	8.8886e-15
9025.3910	8.1685e-13	9.5207e-15
9026.6410	7.8632e-13	8.4690e-15
9027.8910	7.8939e-13	8.8836e-15
9029.1410	8.0763e-13	6.4513e-15
9030.3910	8.1032e-13	5.2924e-15
9031.6410	8.0849e-13	6.0879e-15
9032.8910	8.0497e-13	6.8008e-15
9034.1410	8.0958e-13	5.1000e-15
9035.3910	8.1030e-13	6.7111e-15
9036.6410	8.1165e-13	6.1592e-15
9037.8910	8.1344e-13	5.9848e-15
9039.1410	8.1449e-13	5.8264e-15
9040.3910	8.1540e-13	4.9303e-15
9041.6410	8.1521e-13	5.5136e-15
9042.8910	8.1353e-13	7.0987e-15
9044.1410	8.0768e-13	5.2096e-15
9045.3910	8.1205e-13	6.4460e-15
9046.6410	8.1435e-13	5.6833e-15
9047.8910	8.1308e-13	6.5695e-15
9049.1410	8.1134e-13	5.8431e-15
9050.3910	8.1304e-13	6.1501e-15
9051.6410	8.1874e-13	6.0153e-15
9052.8910	8.1906e-13	6.5308e-15
9054.1410	8.0658e-13	6.4249e-15
9055.3910	8.0958e-13	5.4637e-15
9056.6410	8.1461e-13	6.7083e-15
9057.8910	8.1328e-13	7.2402e-15
9059.1410	8.0450e-13	5.2530e-15
9060.3910	7.8235e-13	5.5299e-15
9061.6410	7.7847e-13	5.3278e-15
9062.8910	8.0230e-13	5.3245e-15
9064.1410	8.1161e-13	5.5849e-15
9065.3910	8.0840e-13	5.9516e-15
9066.6410	8.1418e-13	4.8840e-15
9067.8910	8.2634e-13	5.6772e-15
9069.1410	8.2521e-13	7.1386e-15
9070.3910	8.0997e-13	7.3338e-15
9071.6410	8.1936e-13	7.7750e-15
9072.8910	8.0117e-13	5.8932e-15
9074.1410	8.0131e-13	5.6155e-15
9075.3910	7.9911e-13	4.5030e-15
9076.6410	7.9312e-13	3.9687e-15
9077.8910	8.0369e-13	6.3080e-15
9079.1410	8.1930e-13	7.7218e-15
9080.3910	8.0757e-13	5.6010e-15
9081.6410	7.9921e-13	8.2489e-15
9082.8910	8.0095e-13	6.1714e-15
9084.1410	8.1236e-13	4.9525e-15
9085.3910	8.2629e-13	7.6576e-15
9086.6410	8.0501e-13	1.0559e-14
9087.8910	7.5772e-13	6.0606e-15
9089.1410	7.8231e-13	5.8577e-15
9090.3910	8.0922e-13	4.7250e-15
9091.6410	8.0804e-13	4.9153e-15
9092.8910	7.8788e-13	5.7096e-15
9094.1410	7.7429e-13	6.5215e-15
9095.3910	7.9516e-13	6.4604e-15
9096.6410	8.1026e-13	5.4885e-15
9097.8910	8.2230e-13	6.3864e-15
9099.1410	8.2466e-13	7.3556e-15
9100.3910	8.0257e-13	7.1382e-15
9101.6410	7.9006e-13	7.1059e-15
9102.8910	8.0533e-13	5.4003e-15
9104.1410	8.1987e-13	4.9697e-15
9105.3910	8.2326e-13	6.2401e-15
9106.6410	8.1282e-13	5.2068e-15
9107.8910	8.0320e-13	5.7387e-15
9109.1410	7.9083e-13	6.2314e-15
9110.3910	7.8272e-13	5.7943e-15
9111.6410	7.9341e-13	4.6704e-15
9112.8910	8.1057e-13	5.9293e-15
9114.1410	8.1357e-13	5.8303e-15
9115.3910	8.1300e-13	6.1438e-15
9116.6410	8.1398e-13	5.9480e-15
9117.8910	8.1421e-13	6.0013e-15
9119.1410	7.9821e-13	7.2621e-15
9120.3910	7.8725e-13	6.9682e-15
9121.6410	8.0387e-13	5.5453e-15
9122.8910	8.1125e-13	5.5678e-15
9124.1410	8.1348e-13	6.3203e-15
9125.3910	8.0874e-13	6.0582e-15
9126.6410	8.1432e-13	5.6025e-15
9127.8910	8.1941e-13	7.5334e-15
9129.1410	8.1949e-13	5.6452e-15
9130.3910	8.1095e-13	6.1631e-15
9131.6410	7.8738e-13	5.0433e-15
9132.8910	7.9944e-13	6.5861e-15
9134.1410	8.1767e-13	7.1038e-15
9135.3910	8.2342e-13	7.6841e-15
9136.6410	8.0472e-13	6.6762e-15
9137.8910	7.7709e-13	6.8498e-15
9139.1410	7.9384e-13	5.4266e-15
9140.3910	8.0820e-13	5.4882e-15
9141.6410	8.0691e-13	5.1655e-15
9142.8910	8.0889e-13	4.7071e-15
9144.1410	8.0730e-13	5.4410e-15
9145.3910	8.0116e-13	5.8346e-15
9146.6410	8.0252e-13	5.1431e-15
9147.8910	8.0806e-13	4.9391e-15
9149.1410	8.0951e-13	5.2461e-15
9150.3910	8.1193e-13	5.9637e-15
9151.6410	8.1633e-13	5.5259e-15
9152.8910	8.0783e-13	5.4905e-15
9154.1410	8.0093e-13	5.3367e-15
9155.3910	8.1138e-13	6.4391e-15
9156.6410	7.7935e-13	6.3415e-15
9157.8910	7.8479e-13	3.5306e-15
9159.1410	8.0471e-13	3.8813e-15
9160.3910	8.0610e-13	5.6860e-15
9161.6410	7.9834e-13	5.4531e-15
9162.8910	7.9937e-13	4.6890e-15
9164.1410	8.0101e-13	4.6768e-15
9165.3910	8.0185e-13	4.7535e-15
9166.6410	8.0657e-13	4.9672e-15
9167.8910	8.0505e-13	5.9014e-15
9169.1410	7.9863e-13	3.8845e-15
9170.3910	7.9717e-13	4.3777e-15
9171.6410	8.0259e-13	5.9808e-15
9172.8910	8.0906e-13	6.4063e-15
9174.1410	8.0733e-13	5.3796e-15
9175.3910	7.8810e-13	5.5421e-15
9176.6410	7.8732e-13	5.5113e-15
9177.8910	7.8691e-13	4.3503e-15
9179.1410	7.9064e-13	5.0048e-15
9180.3910	7.9633e-13	4.5252e-15
9181.6410	7.9739e-13	6.2690e-15
9182.8910	8.0314e-13	6.2502e-15
9184.1410	8.0440e-13	6.3568e-15
9185.3910	7.8620e-13	5.7246e-15
9186.6410	7.8466e-13	5.5522e-15
9187.8910	7.9296e-13	4.8980e-15
9189.1410	7.9611e-13	5.6414e-15
9190.3910	7.9790e-13	5.8248e-15
9191.6410	7.9729e-13	4.8894e-15
9192.8910	7.9251e-13	4.1926e-15
9194.1410	7.9826e-13	5.8563e-15
9195.3910	8.0021e-13	6.3456e-15
9196.6410	7.7954e-13	4.5073e-15
9197.8910	7.8239e-13	4.8442e-15
9199.1410	7.8964e-13	5.6557e-15
9200.3910	7.8976e-13	6.2471e-15
9201.6410	7.8801e-13	5.0793e-15
9202.8910	7.8878e-13	5.2707e-15
9204.1410	7.9041e-13	5.1561e-15
9205.3910	7.8842e-13	5.4785e-15
9206.6410	7.8476e-13	5.5739e-15
9207.8910	7.8115e-13	6.4242e-15
9209.1410	7.7487e-13	5.4969e-15
9210.3910	7.6750e-13	3.6956e-15
9211.6410	7.5554e-13	5.0243e-15
9212.8910	7.6429e-13	5.9248e-15
9214.1410	7.7744e-13	5.1413e-15
9215.3910	7.7186e-13	4.9078e-15
9216.6410	7.6472e-13	6.0836e-15
9217.8910	7.5639e-13	5.2419e-15
9219.1410	7.6081e-13	5.2166e-15
9220.3910	7.6700e-13	4.4259e-15
9221.6410	7.6514e-13	5.4352e-15
9222.8910	7.5947e-13	4.7415e-15
9224.1410	7.5358e-13	6.1739e-15
9225.3910	7.2926e-13	5.7047e-15
9226.6410	6.9518e-13	5.5290e-15
9227.8910	6.8521e-13	4.5149e-15
9229.1410	7.0788e-13	4.5861e-15
9230.3910	7.3194e-13	5.3376e-15
9231.6410	7.4523e-13	4.6702e-15
9232.8910	7.5475e-13	4.3656e-15
9234.1410	7.5840e-13	4.6079e-15
9235.3910	7.4802e-13	3.4448e-15
9236.6410	7.4452e-13	4.1087e-15
9237.8910	7.5849e-13	4.7621e-15
9239.1410	7.6303e-13	4.8099e-15
9240.3910	7.6236e-13	4.5537e-15
9241.6410	7.6372e-13	5.5623e-15
9242.8910	7.6449e-13	5.7089e-15
9244.1410	7.6603e-13	6.7845e-15
9245.3910	7.6530e-13	4.5209e-15
9246.6410	7.6062e-13	5.8017e-15
9247.8910	7.6391e-13	4.5673e-15
9249.1410	7.7077e-13	5.4783e-15
9250.3910	7.7008e-13	5.8225e-15
9251.6410	7.5868e-13	5.5233e-15
9252.8910	7.4975e-13	4.5541e-15
9254.1410	7.3935e-13	4.7435e-15
9255.3910	7.3858e-13	4.8600e-15
9256.6410	7.5240e-13	4.6614e-15
9257.8910	7.6011e-13	5.7681e-15
9259.1410	7.6508e-13	4.4991e-15
9260.3910	7.6356e-13	6.3938e-15
9261.6410	7.5709e-13	4.7778e-15
9262.8910	7.5641e-13	4.7734e-15
9264.1410	7.5673e-13	4.6349e-15
9265.3910	7.6013e-13	5.2418e-15
9266.6410	7.6188e-13	5.0216e-15
9267.8910	7.6213e-13	5.4575e-15
9269.1410	7.6279e-13	6.3647e-15
9270.3910	7.6115e-13	5.8155e-15
9271.6410	7.6177e-13	4.9660e-15
9272.8910	7.6258e-13	5.0479e-15
9274.1410	7.5727e-13	5.9381e-15
9275.3910	7.5723e-13	5.6534e-15
9276.6410	7.6567e-13	7.6577e-15
9277.8910	7.7507e-13	8.4897e-15
9279.1410	7.5771e-13	5.6510e-15
9280.3910	7.3533e-13	6.8783e-15
9281.6410	7.4428e-13	4.7767e-15
9282.8910	7.5788e-13	5.9913e-15
9284.1410	7.6676e-13	7.3992e-15
9285.3910	7.5376e-13	4.4981e-15
9286.6410	7.4436e-13	6.0540e-15
9287.8910	7.4558e-13	4.9921e-15
9289.1410	7.4896e-13	5.1970e-15
9290.3910	7.5080e-13	5.4523e-15
9291.6410	7.4999e-13	4.6521e-15
9292.8910	7.5493e-13	5.6243e-15
9294.1410	7.5573e-13	5.8628e-15
9295.3910	7.4273e-13	5.6435e-15
9296.6410	7.4626e-13	5.3652e-15
9297.8910	7.4922e-13	5.0123e-15
9299.1410	7.4744e-13	5.2173e-15
9300.3910	7.5910e-13	7.5666e-15
9301.6410	7.3461e-13	4.1424e-15
9302.8910	7.3785e-13	4.5434e-15
9304.1410	7.3286e-13	6.2986e-15
9305.3910	7.2292e-13	3.8774e-15
9306.6410	7.5855e-13	7.1586e-15
9307.8910	7.9595e-13	1.2828e-14
9309.1410	7.5436e-13	1.0218e-14
9310.3910	6.8241e-13	1.1205e-14
9311.6410	7.0105e-13	6.1993e-15
9312.8910	7.3691e-13	9.1765e-15
9314.1410	7.8524e-13	2.3422e-14
9315.3910	8.3620e-13	2.3545e-14
9316.6410	7.4821e-13	1.4999e-14
9317.8910	6.5617e-13	1.3061e-14
9319.1410	6.8882e-13	1.1654e-14
9320.3910	7.0688e-13	7.3377e-15
9321.6410	7.4431e-13	9.4746e-15
9322.8910	7.8074e-13	1.7054e-14
9324.1410	7.8062e-13	1.3580e-14
9325.3910	7.1389e-13	1.3315e-14
9326.6410	6.6278e-13	6.2254e-15
9327.8910	6.9061e-13	9.1191e-15
9329.1410	6.9913e-13	3.4525e-15
9330.3910	7.3051e-13	7.2973e-15
9331.6410	7.5395e-13	1.4323e-14
9332.8910	7.9619e-13	2.8747e-14
9334.1410	7.3480e-13	7.1030e-15
9335.3910	6.5728e-13	1.3517e-14
9336.6410	6.8626e-13	4.0987e-15
9337.8910	7.4016e-13	4.2392e-15
9339.1410	7.2981e-13	6.3889e-15
9340.3910	7.0086e-13	1.4044e-14
9341.6410	8.3202e-13	5.6972e-14
9342.8910	8.3868e-13	2.2311e-14
9344.1410	6.8176e-13	3.8703e-14
9345.3910	6.2293e-13	2.9773e-14
9346.6410	6.0700e-13	1.4109e-14
9347.8910	6.5917e-13	4.9636e-15
9349.1410	7.0322e-13	1.8347e-15
9350.3910	7.1307e-13	4.1637e-15
9351.6410	1.9648e-13	4.8375e-14
