lambda	Flux	e_Flux
0.1nm	10-2W/m2/nm	10-2W/m2/nm
---------	----------	----------
4749.6500	6.7094e-11	1.3854e-12
4750.9000	7.3205e-11	1.4671e-12
4752.1500	7.2373e-11	1.3498e-12
4753.4000	7.0023e-11	1.3574e-12
4754.6500	7.0613e-11	1.3569e-12
4755.9000	7.1990e-11	1.4327e-12
4757.1500	7.0243e-11	1.3744e-12
4758.4000	6.5861e-11	1.3648e-12
4759.6500	6.4449e-11	1.3021e-12
4760.9000	6.5978e-11	1.2649e-12
4762.1500	6.2886e-11	1.2350e-12
4763.4000	5.8258e-11	1.1883e-12
4764.6500	5.6659e-11	1.0626e-12
4765.9000	5.4323e-11	1.0486e-12
4767.1500	5.3753e-11	1.1246e-12
4768.4000	5.7051e-11	1.2339e-12
4769.6500	6.0122e-11	1.0809e-12
4770.9000	6.0393e-11	1.2385e-12
4772.1500	5.8094e-11	1.2226e-12
4773.4000	5.7966e-11	1.2135e-12
4774.6500	6.2301e-11	1.2562e-12
4775.9000	6.4470e-11	1.2030e-12
4777.1500	6.3033e-11	1.3408e-12
4778.4000	6.2034e-11	1.1706e-12
4779.6500	6.0243e-11	1.2124e-12
4780.9000	5.8815e-11	1.1941e-12
4782.1500	5.7131e-11	1.2256e-12
4783.4000	5.4691e-11	1.1185e-12
4784.6500	5.5248e-11	1.1548e-12
4785.9000	5.7928e-11	1.2485e-12
4787.1500	5.8298e-11	1.1229e-12
4788.4000	5.8526e-11	1.1767e-12
4789.6500	5.8087e-11	1.1660e-12
4790.9000	5.8241e-11	1.1760e-12
4792.1500	5.9863e-11	1.1978e-12
4793.4000	6.3503e-11	1.3422e-12
4794.6500	6.9474e-11	1.4900e-12
4795.9000	7.1104e-11	1.4908e-12
4797.1500	6.8554e-11	1.4229e-12
4798.4000	6.4843e-11	1.2944e-12
4799.6500	6.1654e-11	1.1151e-12
4800.9000	6.2409e-11	1.2235e-12
4802.1500	6.7645e-11	1.3561e-12
4803.4000	7.1822e-11	1.4924e-12
4804.6500	6.9077e-11	1.3020e-12
4805.9000	6.2216e-11	1.2801e-12
4807.1500	5.8675e-11	1.1845e-12
4808.4000	5.7924e-11	1.1776e-12
4809.6500	5.9977e-11	1.1972e-12
4810.9000	6.2856e-11	1.2308e-12
4812.1500	6.2797e-11	1.3616e-12
4813.4000	6.2833e-11	1.3092e-12
4814.6500	6.3369e-11	1.2614e-12
4815.9000	6.2359e-11	1.1829e-12
4817.1500	6.4095e-11	1.2852e-12
4818.4000	6.8208e-11	1.4079e-12
4819.6500	7.0045e-11	1.4804e-12
4820.9000	6.9315e-11	1.3872e-12
4822.1500	6.8656e-11	1.3321e-12
4823.4000	6.5512e-11	1.3336e-12
4824.6500	6.2781e-11	1.3205e-12
4825.9000	6.6446e-11	1.3938e-12
4827.1500	6.8031e-11	1.4320e-12
4828.4000	6.5004e-11	1.3870e-12
4829.6500	6.4689e-11	1.2934e-12
4830.9000	6.6315e-11	1.4101e-12
4832.1500	6.1164e-11	1.2391e-12
4833.4000	5.9724e-11	1.1192e-12
4834.6500	6.7077e-11	1.5137e-12
4835.9000	6.9264e-11	1.4400e-12
4837.1500	6.8092e-11	1.3901e-12
4838.4000	6.8044e-11	1.5005e-12
4839.6500	6.6005e-11	1.3605e-12
4840.9000	6.5026e-11	1.3955e-12
4842.1500	6.6673e-11	1.4599e-12
4843.4000	6.4826e-11	1.2784e-12
4844.6500	6.4560e-11	1.3347e-12
4845.9000	6.9989e-11	1.5772e-12
4847.1500	7.1917e-11	1.5441e-12
4848.4000	6.6760e-11	1.3157e-12
4849.6500	6.4566e-11	1.3787e-12
4850.9000	6.7221e-11	1.4269e-12
4852.1500	6.7389e-11	1.4893e-12
4853.4000	6.8418e-11	1.4430e-12
4854.6500	6.6613e-11	1.3562e-12
4855.9000	6.2079e-11	1.2798e-12
4857.1500	6.5270e-11	1.3905e-12
4858.4000	7.0050e-11	1.4175e-12
4859.6500	6.7552e-11	1.3850e-12
4860.9000	5.8980e-11	1.2363e-12
4862.1500	5.3957e-11	1.1149e-12
4863.4000	5.9415e-11	1.1903e-12
4864.6500	6.3468e-11	1.3513e-12
4865.9000	6.4500e-11	1.2669e-12
4867.1500	6.7232e-11	1.3974e-12
4868.4000	6.7090e-11	1.4374e-12
4869.6500	6.7787e-11	1.4231e-12
4870.9000	6.6565e-11	1.5232e-12
4872.1500	6.2062e-11	1.4071e-12
4873.4000	6.4948e-11	1.3562e-12
4874.6500	6.8593e-11	1.4369e-12
4875.9000	6.6698e-11	1.4061e-12
4877.1500	6.9264e-11	1.5688e-12
4878.4000	7.2638e-11	1.5452e-12
4879.6500	7.4526e-11	1.7353e-12
4880.9000	6.9950e-11	1.5766e-12
4882.1500	6.2569e-11	1.3238e-12
4883.4000	6.6704e-11	1.4065e-12
4884.6500	7.0666e-11	1.5086e-12
4885.9000	6.6164e-11	1.3752e-12
4887.1500	6.4108e-11	1.3630e-12
4888.4000	6.7448e-11	1.4838e-12
4889.6500	6.8694e-11	1.5572e-12
4890.9000	6.4382e-11	1.3804e-12
4892.1500	6.3531e-11	1.3404e-12
4893.4000	7.0343e-11	1.5546e-12
4894.6500	7.7061e-11	1.6833e-12
4895.9000	8.2291e-11	1.7656e-12
4897.1500	8.4714e-11	1.8538e-12
4898.4000	8.4412e-11	1.9026e-12
4899.6500	7.8083e-11	1.7742e-12
4900.9000	7.2825e-11	1.5486e-12
4902.1500	7.4613e-11	1.6418e-12
4903.4000	7.3794e-11	1.6522e-12
4904.6500	7.2696e-11	1.7115e-12
4905.9000	7.8594e-11	1.7580e-12
4907.1500	8.2850e-11	1.8107e-12
4908.4000	7.9243e-11	1.7764e-12
4909.6500	7.3975e-11	1.5737e-12
4910.9000	7.3093e-11	1.7125e-12
4912.1500	7.5759e-11	1.6577e-12
4913.4000	7.7052e-11	1.6734e-12
4914.6500	7.8046e-11	1.6902e-12
4915.9000	8.1743e-11	1.7300e-12
4917.1500	8.3857e-11	1.8263e-12
4918.4000	7.8572e-11	1.8242e-12
4919.6500	6.8026e-11	1.5470e-12
4920.9000	6.1358e-11	1.3586e-12
4922.1500	6.6470e-11	1.5108e-12
4923.4000	7.6038e-11	1.7119e-12
4924.6500	7.6180e-11	1.7562e-12
4925.9000	7.2421e-11	1.6184e-12
4927.1500	7.7427e-11	1.7772e-12
4928.4000	8.3187e-11	1.8747e-12
4929.6500	8.5800e-11	1.9182e-12
4930.9000	8.7355e-11	1.9362e-12
4932.1500	8.6028e-11	1.9550e-12
4933.4000	7.9590e-11	1.8930e-12
4934.6500	7.4361e-11	1.6388e-12
4935.9000	7.9350e-11	1.7589e-12
4937.1500	8.0626e-11	1.9037e-12
4938.4000	7.1402e-11	1.5958e-12
4939.6500	6.7115e-11	1.4574e-12
4940.9000	7.3512e-11	1.6172e-12
4942.1500	7.7791e-11	1.8382e-12
4943.4000	7.9473e-11	1.7374e-12
4944.6500	8.3551e-11	1.9239e-12
4945.9000	8.3449e-11	1.8827e-12
4947.1500	8.3586e-11	1.9468e-12
4948.4000	8.5101e-11	1.9857e-12
4949.6500	8.6695e-11	2.0133e-12
4950.9000	9.0208e-11	2.0774e-12
4952.1500	9.0815e-11	2.0720e-12
4953.4000	8.5793e-11	1.9825e-12
4954.6500	7.7178e-11	1.7354e-12
4955.9000	6.8964e-11	1.5133e-12
4957.1500	5.9222e-11	1.3268e-12
4958.4000	5.3003e-11	1.2198e-12
4959.6500	5.8809e-11	1.3871e-12
4960.9000	6.6313e-11	1.4958e-12
4962.1500	6.6640e-11	1.4704e-12
4963.4000	6.5339e-11	1.5688e-12
4964.6500	6.3381e-11	1.4657e-12
4965.9000	6.0342e-11	1.3648e-12
4967.1500	5.8846e-11	1.3476e-12
4968.4000	5.9582e-11	1.3865e-12
4969.6500	6.3555e-11	1.4844e-12
4970.9000	6.7687e-11	1.5661e-12
4972.1500	7.0665e-11	1.6084e-12
4973.4000	7.2587e-11	1.7109e-12
4974.6500	7.3654e-11	1.7332e-12
4975.9000	7.3890e-11	1.7469e-12
4977.1500	7.3030e-11	1.6771e-12
4978.4000	6.9430e-11	1.6716e-12
4979.6500	6.5975e-11	1.6151e-12
4980.9000	6.4599e-11	1.5344e-12
4982.1500	5.8659e-11	1.4265e-12
4983.4000	5.5676e-11	1.3450e-12
4984.6500	6.2228e-11	1.3787e-12
4985.9000	6.6955e-11	1.5597e-12
4987.1500	6.8215e-11	1.5985e-12
4988.4000	7.0481e-11	1.6663e-12
4989.6500	6.9846e-11	1.5975e-12
4990.9000	6.7151e-11	1.5732e-12
4992.1500	6.8824e-11	1.5903e-12
4993.4000	7.2571e-11	1.7357e-12
4994.6500	7.0137e-11	1.5980e-12
4995.9000	6.9400e-11	1.6575e-12
4997.1500	7.0233e-11	1.6282e-12
4998.4000	6.9424e-11	1.6926e-12
4999.6500	6.4056e-11	1.5047e-12
5000.9000	5.9095e-11	1.3231e-12
5002.1500	6.2487e-11	1.5152e-12
5003.4000	6.4891e-11	1.5497e-12
5004.6500	6.4686e-11	1.5468e-12
5005.9000	6.2323e-11	1.4954e-12
5007.1500	5.9136e-11	1.3503e-12
5008.4000	6.1718e-11	1.5460e-12
5009.6500	6.5946e-11	1.6126e-12
5010.9000	6.7504e-11	1.6295e-12
5012.1500	6.4148e-11	1.5623e-12
5013.4000	5.7168e-11	1.4356e-12
5014.6500	5.2218e-11	1.2229e-12
5015.9000	5.5147e-11	1.3980e-12
5017.1500	6.2429e-11	1.5140e-12
5018.4000	6.5527e-11	1.6216e-12
5019.6500	6.6412e-11	1.5492e-12
5020.9000	6.6073e-11	1.5822e-12
5022.1500	6.2071e-11	1.5430e-12
5023.4000	5.9980e-11	1.5158e-12
5024.6500	6.4344e-11	1.4629e-12
5025.9000	6.8110e-11	1.6419e-12
5027.1500	6.7236e-11	1.6259e-12
5028.4000	6.5024e-11	1.6525e-12
5029.6500	6.7657e-11	1.6852e-12
5030.9000	7.2062e-11	1.7061e-12
5032.1500	7.4644e-11	1.7893e-12
5033.4000	7.7219e-11	1.8334e-12
5034.6500	7.6209e-11	1.8947e-12
5035.9000	6.8270e-11	1.7357e-12
5037.1500	6.4000e-11	1.5554e-12
5038.4000	6.6790e-11	1.5757e-12
5039.6500	6.2954e-11	1.5815e-12
5040.9000	5.3557e-11	1.3570e-12
5042.1500	5.3234e-11	1.2550e-12
5043.4000	6.3467e-11	1.5598e-12
5044.6500	7.1889e-11	1.8020e-12
5045.9000	7.7143e-11	1.8624e-12
5047.1500	8.0063e-11	2.0043e-12
5048.4000	7.5833e-11	1.9061e-12
5049.6500	6.7818e-11	1.7140e-12
5050.9000	6.4880e-11	1.5521e-12
5052.1500	6.6663e-11	1.6105e-12
5053.4000	6.9033e-11	1.6917e-12
5054.6500	7.1934e-11	1.8499e-12
5055.9000	7.4620e-11	1.8242e-12
5057.1500	7.6257e-11	1.9093e-12
5058.4000	7.7754e-11	1.9304e-12
5059.6500	7.7819e-11	1.8691e-12
5060.9000	7.8678e-11	1.8834e-12
5062.1500	8.0350e-11	2.0114e-12
5063.4000	7.7728e-11	1.9066e-12
5064.6500	6.7333e-11	1.6773e-12
5065.9000	6.1389e-11	1.4566e-12
5067.1500	6.7418e-11	1.7670e-12
5068.4000	6.8816e-11	1.7241e-12
5069.6500	6.8113e-11	1.7167e-12
5070.9000	7.1140e-11	1.7692e-12
5072.1500	6.9208e-11	1.6567e-12
5073.4000	6.9205e-11	1.7681e-12
5074.6500	7.5678e-11	2.0090e-12
5075.9000	7.4380e-11	1.8710e-12
5077.1500	7.0195e-11	1.7950e-12
5078.4000	7.2153e-11	1.7782e-12
5079.6500	6.6932e-11	1.6342e-12
5080.9000	6.0462e-11	1.6055e-12
5082.1500	6.1493e-11	1.5179e-12
5083.4000	6.2222e-11	1.5534e-12
5084.6500	6.4298e-11	1.6040e-12
5085.9000	6.8517e-11	1.6898e-12
5087.1500	7.1276e-11	1.7772e-12
5088.4000	7.1933e-11	1.8052e-12
5089.6500	7.2654e-11	1.7292e-12
5090.9000	7.3183e-11	1.8469e-12
5092.1500	7.4267e-11	1.8630e-12
5093.4000	7.8253e-11	1.9483e-12
5094.6500	7.8072e-11	1.8978e-12
5095.9000	7.1131e-11	1.7931e-12
5097.1500	7.0270e-11	1.7786e-12
5098.4000	7.1946e-11	1.9198e-12
5099.6500	6.6569e-11	1.7678e-12
5100.9000	6.5148e-11	1.6939e-12
5102.1500	6.9299e-11	1.7732e-12
5103.4000	7.0315e-11	1.7445e-12
5104.6500	6.9113e-11	1.7449e-12
5105.9000	6.8565e-11	1.7353e-12
5107.1500	6.7363e-11	1.7191e-12
5108.4000	6.6095e-11	1.5939e-12
5109.6500	6.7293e-11	1.6269e-12
5110.9000	6.7041e-11	1.7137e-12
5112.1500	6.7115e-11	1.7756e-12
5113.4000	6.7082e-11	1.6491e-12
5114.6500	7.0784e-11	1.6966e-12
5115.9000	7.7040e-11	1.9601e-12
5117.1500	7.8297e-11	1.9869e-12
5118.4000	7.9495e-11	2.0079e-12
5119.6500	7.7299e-11	1.9927e-12
5120.9000	7.2785e-11	1.8184e-12
5122.1500	7.0803e-11	1.8616e-12
5123.4000	6.5705e-11	1.7833e-12
5124.6500	5.9781e-11	1.5016e-12
5125.9000	6.2895e-11	1.5037e-12
5127.1500	6.5519e-11	1.6511e-12
5128.4000	6.4058e-11	1.6176e-12
5129.6500	6.1930e-11	1.4557e-12
5130.9000	6.2740e-11	1.5136e-12
5132.1500	7.0520e-11	1.8548e-12
5133.4000	7.3817e-11	1.8543e-12
5134.6500	7.3484e-11	1.8038e-12
5135.9000	7.7274e-11	2.0097e-12
5137.1500	7.7929e-11	1.9968e-12
5138.4000	7.4688e-11	1.8743e-12
5139.6500	7.0308e-11	1.7261e-12
5140.9000	7.3316e-11	1.9334e-12
5142.1500	7.4684e-11	1.8365e-12
5143.4000	6.8327e-11	1.7462e-12
5144.6500	6.8708e-11	1.7705e-12
5145.9000	6.7706e-11	1.6978e-12
5147.1500	6.3799e-11	1.6090e-12
5148.4000	6.6150e-11	1.6235e-12
5149.6500	6.9391e-11	1.7012e-12
5150.9000	6.7270e-11	1.6671e-12
5152.1500	6.1786e-11	1.6495e-12
5153.4000	5.8285e-11	1.5508e-12
5154.6500	5.9274e-11	1.4992e-12
5155.9000	6.6885e-11	1.6938e-12
5157.1500	7.6461e-11	1.9160e-12
5158.4000	8.1514e-11	2.0709e-12
5159.6500	8.0333e-11	2.0491e-12
5160.9000	8.0630e-11	1.9683e-12
5162.1500	8.2485e-11	2.0397e-12
5163.4000	7.9345e-11	2.1229e-12
5164.6500	7.6662e-11	1.9617e-12
5165.9000	6.6344e-11	1.8137e-12
5167.1500	4.8247e-11	1.4217e-12
5168.4000	3.8979e-11	9.8802e-13
5169.6500	4.1654e-11	1.0473e-12
5170.9000	4.6677e-11	1.1557e-12
5172.1500	4.2971e-11	1.2239e-12
5173.4000	3.6109e-11	1.0030e-12
5174.6500	4.0767e-11	9.6820e-13
5175.9000	5.1181e-11	1.2941e-12
5177.1500	5.6229e-11	1.4458e-12
5178.4000	5.6890e-11	1.4448e-12
5179.6500	5.5393e-11	1.4851e-12
5180.9000	5.2973e-11	1.4223e-12
5182.1500	4.8303e-11	1.3212e-12
5183.4000	4.0744e-11	1.1017e-12
5184.6500	3.9207e-11	9.3328e-13
5185.9000	5.1616e-11	1.2599e-12
5187.1500	6.4905e-11	1.6623e-12
5188.4000	6.9350e-11	1.8002e-12
5189.6500	7.0907e-11	1.7317e-12
5190.9000	7.1508e-11	1.8938e-12
5192.1500	6.2961e-11	1.6869e-12
5193.4000	5.5263e-11	1.3774e-12
5194.6500	5.9062e-11	1.5280e-12
5195.9000	6.4573e-11	1.5779e-12
5197.1500	7.0853e-11	1.8290e-12
5198.4000	7.5261e-11	1.9365e-12
5199.6500	7.5204e-11	1.8776e-12
5200.9000	7.4070e-11	1.8943e-12
5202.1500	7.1586e-11	1.7822e-12
5203.4000	6.9701e-11	1.8508e-12
5204.6500	6.3240e-11	1.6755e-12
5205.9000	5.3350e-11	1.2037e-12
5207.1500	5.0962e-11	1.2444e-12
5208.4000	4.9113e-11	1.2407e-12
5209.6500	4.6746e-11	1.1767e-12
5210.9000	5.1447e-11	1.3359e-12
5212.1500	6.4102e-11	1.7083e-12
5213.4000	7.6714e-11	1.9785e-12
5214.6500	8.1502e-11	2.0842e-12
5215.9000	7.9875e-11	2.0354e-12
5217.1500	7.8392e-11	1.9191e-12
5218.4000	8.1359e-11	2.1025e-12
5219.6500	8.2705e-11	2.0995e-12
5220.9000	8.3571e-11	2.0987e-12
5222.1500	8.5871e-11	2.1266e-12
5223.4000	8.1959e-11	1.9484e-12
5224.6500	7.1820e-11	1.9010e-12
5225.9000	6.4581e-11	1.6917e-12
5227.1500	6.2706e-11	1.5976e-12
5228.4000	7.0584e-11	1.7083e-12
5229.6500	8.3661e-11	2.0016e-12
5230.9000	8.9120e-11	2.2161e-12
5232.1500	8.9703e-11	2.1057e-12
5233.4000	8.4509e-11	2.1261e-12
5234.6500	8.0028e-11	2.0307e-12
5235.9000	8.3828e-11	2.1153e-12
5237.1500	9.0130e-11	2.1884e-12
5238.4000	9.1080e-11	2.2851e-12
5239.6500	8.6557e-11	2.1898e-12
5240.9000	8.3222e-11	2.0509e-12
5242.1500	8.4982e-11	2.0835e-12
5243.4000	8.8127e-11	2.2389e-12
5244.6500	9.0437e-11	2.2321e-12
5245.9000	8.7794e-11	2.2476e-12
5247.1500	7.3044e-11	1.9483e-12
5248.4000	6.6791e-11	1.5829e-12
5249.6500	7.5073e-11	1.8749e-12
5250.9000	7.3383e-11	1.9941e-12
5252.1500	7.0329e-11	1.6285e-12
5253.4000	7.7354e-11	1.9251e-12
5254.6500	8.0449e-11	2.0649e-12
5255.9000	7.7310e-11	1.9256e-12
5257.1500	8.2980e-11	1.9126e-12
5258.4000	9.2761e-11	2.3451e-12
5259.6500	9.3970e-11	2.3726e-12
5260.9000	8.9972e-11	2.2881e-12
5262.1500	8.4099e-11	2.2607e-12
5263.4000	7.6752e-11	1.9209e-12
5264.6500	7.0438e-11	1.8250e-12
5265.9000	6.5846e-11	1.5857e-12
5267.1500	6.8967e-11	1.6747e-12
5268.4000	7.6837e-11	2.1106e-12
5269.6500	6.5540e-11	1.6093e-12
5270.9000	5.6934e-11	1.2123e-12
5272.1500	7.2731e-11	1.8687e-12
5273.4000	8.4985e-11	2.1453e-12
5274.6500	8.6910e-11	2.2300e-12
5275.9000	8.4662e-11	2.0628e-12
5277.1500	8.6807e-11	2.0743e-12
5278.4000	9.5244e-11	2.3870e-12
5279.6500	9.7458e-11	2.3783e-12
5280.9000	9.3388e-11	2.2235e-12
5282.1500	8.7783e-11	2.1654e-12
5283.4000	8.3382e-11	2.0029e-12
5284.6500	8.4246e-11	2.2103e-12
5285.9000	9.3596e-11	2.4261e-12
5287.1500	1.0138e-10	2.3593e-12
5288.4000	9.9216e-11	2.3953e-12
5289.6500	9.4826e-11	2.3909e-12
5290.9000	9.5560e-11	2.4337e-12
5292.1500	9.7952e-11	2.3809e-12
5293.4000	9.7708e-11	2.4307e-12
5294.6500	9.7569e-11	2.4108e-12
5295.9000	9.4608e-11	2.2442e-12
5297.1500	8.3562e-11	2.0652e-12
5298.4000	7.4522e-11	1.8775e-12
5299.6500	7.9479e-11	1.9869e-12
5300.9000	8.6079e-11	2.0693e-12
5302.1500	8.7096e-11	2.1167e-12
5303.4000	9.2463e-11	2.1603e-12
5304.6500	1.0067e-10	2.4035e-12
5305.9000	1.0452e-10	2.5083e-12
5307.1500	1.0097e-10	2.5047e-12
5308.4000	9.6954e-11	2.3647e-12
5309.6500	9.9600e-11	2.3416e-12
5310.9000	1.0222e-10	2.5126e-12
5312.1500	1.0023e-10	2.5075e-12
5313.4000	9.7333e-11	2.4241e-12
5314.6500	9.7273e-11	2.3598e-12
5315.9000	9.9453e-11	2.4042e-12
5317.1500	9.9422e-11	2.3940e-12
5318.4000	9.7891e-11	2.4351e-12
5319.6500	9.6019e-11	2.3817e-12
5320.9000	9.5592e-11	2.2920e-12
5322.1500	9.6548e-11	2.3224e-12
5323.4000	9.5135e-11	2.4370e-12
5324.6500	9.1794e-11	2.1978e-12
5325.9000	9.3777e-11	2.1233e-12
5327.1500	9.2018e-11	2.4525e-12
5328.4000	7.3134e-11	1.9685e-12
5329.6500	6.5604e-11	1.5348e-12
5330.9000	7.9948e-11	1.9593e-12
5332.1500	9.0099e-11	2.2811e-12
5333.4000	9.1801e-11	2.2522e-12
5334.6500	9.6065e-11	2.2589e-12
5335.9000	1.0092e-10	2.5566e-12
5337.1500	9.8640e-11	2.3661e-12
5338.4000	9.6438e-11	2.3091e-12
5339.6500	9.4427e-11	2.3844e-12
5340.9000	8.5837e-11	2.0897e-12
5342.1500	8.4768e-11	1.9889e-12
5343.4000	9.1969e-11	2.3233e-12
5344.6500	9.4487e-11	2.2908e-12
5345.9000	9.2857e-11	2.1947e-12
5347.1500	9.4056e-11	2.2070e-12
5348.4000	9.4776e-11	2.3895e-12
5349.6500	8.8710e-11	2.0693e-12
5350.9000	8.9905e-11	2.0694e-12
5352.1500	9.9011e-11	2.4702e-12
5353.4000	1.0301e-10	2.4399e-12
5354.6500	1.0467e-10	2.4863e-12
5355.9000	1.0704e-10	2.5506e-12
5357.1500	1.0731e-10	2.5105e-12
5358.4000	1.0795e-10	2.5220e-12
5359.6500	1.0792e-10	2.6685e-12
5360.9000	1.0489e-10	2.5277e-12
5362.1500	9.9433e-11	2.3746e-12
5363.4000	9.7992e-11	2.3682e-12
5364.6500	9.9798e-11	2.4273e-12
5365.9000	9.8803e-11	2.3137e-12
5367.1500	9.7753e-11	2.3393e-12
5368.4000	9.9287e-11	2.3784e-12
5369.6500	9.6447e-11	2.3006e-12
5370.9000	8.6554e-11	2.1111e-12
5372.1500	8.0998e-11	1.9693e-12
5373.4000	9.0714e-11	2.2121e-12
5374.6500	1.0320e-10	2.3845e-12
5375.9000	1.0541e-10	2.4653e-12
5377.1500	1.0148e-10	2.3721e-12
5378.4000	1.0245e-10	2.4883e-12
5379.6500	1.0733e-10	2.5835e-12
5380.9000	1.0539e-10	2.5057e-12
5382.1500	1.0153e-10	2.3508e-12
5383.4000	9.9635e-11	2.3235e-12
5384.6500	9.8236e-11	2.3711e-12
5385.9000	9.9313e-11	2.3569e-12
5387.1500	1.0146e-10	2.3824e-12
5388.4000	1.0083e-10	2.4557e-12
5389.6500	9.5173e-11	2.3014e-12
5390.9000	8.9060e-11	2.0931e-12
5392.1500	8.9757e-11	2.0072e-12
5393.4000	9.4251e-11	2.1677e-12
5394.6500	9.4414e-11	2.2548e-12
5395.9000	9.1519e-11	2.0843e-12
5397.1500	8.3430e-11	2.0233e-12
5398.4000	8.3132e-11	1.8649e-12
5399.6500	9.6301e-11	2.1562e-12
5400.9000	9.9371e-11	2.3988e-12
5402.1500	9.6575e-11	2.1731e-12
5403.4000	9.7509e-11	2.3117e-12
5404.6500	9.2599e-11	2.3054e-12
5405.9000	8.2370e-11	1.8718e-12
5407.1500	8.1712e-11	1.8935e-12
5408.4000	8.8630e-11	2.1017e-12
5409.6500	8.6375e-11	2.0743e-12
5410.9000	8.4726e-11	1.9850e-12
5412.1500	9.4235e-11	2.1504e-12
5413.4000	1.0174e-10	2.3116e-12
5414.6500	1.0403e-10	2.3939e-12
5415.9000	1.0443e-10	2.4637e-12
5417.1500	1.0636e-10	2.5082e-12
5418.4000	1.0779e-10	2.5175e-12
5419.6500	1.0427e-10	2.4591e-12
5420.9000	1.0004e-10	2.3034e-12
5422.1500	1.0187e-10	2.2731e-12
5423.4000	1.0580e-10	2.5061e-12
5424.6500	1.0238e-10	2.3482e-12
5425.9000	1.0020e-10	2.3116e-12
5427.1500	1.0482e-10	2.4851e-12
5428.4000	1.0790e-10	2.7372e-12
5429.6500	9.5540e-11	2.1346e-12
5430.9000	8.8424e-11	1.9592e-12
5432.1500	9.5480e-11	2.3097e-12
5433.4000	9.4762e-11	2.2126e-12
5434.6500	9.0059e-11	1.9440e-12
5435.9000	8.9148e-11	1.9943e-12
5437.1500	9.1186e-11	2.1256e-12
5438.4000	9.4992e-11	2.2460e-12
5439.6500	1.0135e-10	2.3490e-12
5440.9000	1.0729e-10	2.3917e-12
5442.1500	1.1019e-10	2.4318e-12
5443.4000	1.1176e-10	2.5362e-12
5444.6500	1.1080e-10	2.5110e-12
5445.9000	1.0145e-10	2.2477e-12
5447.1500	8.5306e-11	1.9325e-12
5448.4000	7.9651e-11	1.7319e-12
5449.6500	8.3921e-11	1.8592e-12
5450.9000	8.6362e-11	1.9568e-12
5452.1500	8.6725e-11	1.9705e-12
5453.4000	8.5449e-11	1.8987e-12
5454.6500	8.2358e-11	1.8656e-12
5455.9000	7.6092e-11	1.7707e-12
5457.1500	7.6770e-11	1.7600e-12
5458.4000	8.5598e-11	1.9509e-12
5459.6500	8.9860e-11	1.9856e-12
5460.9000	8.6494e-11	1.9334e-12
5462.1500	8.5343e-11	1.8806e-12
5463.4000	8.6674e-11	1.9918e-12
5464.6500	8.7256e-11	2.0092e-12
5465.9000	8.9186e-11	1.9792e-12
5467.1500	9.0347e-11	2.0077e-12
5468.4000	9.2865e-11	2.0124e-12
5469.6500	9.2444e-11	2.0743e-12
5470.9000	8.7678e-11	2.0218e-12
5472.1500	8.7605e-11	1.9706e-12
5473.4000	8.8302e-11	1.9076e-12
5474.6500	8.5085e-11	1.9270e-12
5475.9000	8.5305e-11	1.8782e-12
5477.1500	8.2845e-11	1.8548e-12
5478.4000	8.3613e-11	1.8413e-12
5479.6500	9.2587e-11	2.0288e-12
5480.9000	9.3014e-11	2.1193e-12
5482.1500	8.5040e-11	2.0005e-12
5483.4000	8.4934e-11	1.8735e-12
5484.6500	9.2454e-11	2.0346e-12
5485.9000	9.7798e-11	2.1121e-12
5487.1500	9.6506e-11	2.1209e-12
5488.4000	9.1359e-11	1.9458e-12
5489.6500	9.1809e-11	2.0122e-12
5490.9000	9.0931e-11	2.0334e-12
5492.1500	9.2250e-11	1.9569e-12
5493.4000	9.6361e-11	2.1159e-12
5494.6500	9.4968e-11	2.0814e-12
5495.9000	9.5445e-11	2.0751e-12
5497.1500	9.3275e-11	2.1099e-12
5498.4000	8.8730e-11	1.8588e-12
5499.6500	9.2908e-11	1.9834e-12
5500.9000	9.5138e-11	2.1795e-12
5502.1500	8.9861e-11	1.9754e-12
5503.4000	9.0445e-11	1.9025e-12
5504.6500	9.2768e-11	2.0310e-12
5505.9000	9.0866e-11	2.0346e-12
5507.1500	8.5870e-11	1.7445e-12
5508.4000	8.9180e-11	1.9702e-12
5509.6500	9.6093e-11	2.0638e-12
5510.9000	9.4796e-11	2.1047e-12
5512.1500	8.8246e-11	1.9346e-12
5513.4000	8.3255e-11	1.8386e-12
5514.6500	8.1158e-11	1.7392e-12
5515.9000	8.1949e-11	1.7428e-12
5517.1500	8.7124e-11	1.7832e-12
5518.4000	9.4494e-11	1.9712e-12
5519.6500	1.0159e-10	2.2600e-12
5520.9000	1.0231e-10	2.1843e-12
5522.1500	1.0170e-10	2.2064e-12
5523.4000	1.0196e-10	2.2487e-12
5524.6500	1.0164e-10	2.2148e-12
5525.9000	1.0092e-10	2.1952e-12
5527.1500	9.7586e-11	2.1758e-12
5528.4000	9.0790e-11	1.9177e-12
5529.6500	9.1132e-11	1.9746e-12
5530.9000	9.8417e-11	2.1884e-12
5532.1500	1.0033e-10	2.0823e-12
5533.4000	9.7872e-11	1.9997e-12
5534.6500	9.7111e-11	2.0188e-12
5535.9000	9.7036e-11	2.0628e-12
5537.1500	9.8642e-11	2.1526e-12
5538.4000	9.9087e-11	2.0392e-12
5539.6500	9.9591e-11	2.1721e-12
5540.9000	1.0451e-10	2.1097e-12
5542.1500	1.0654e-10	2.1608e-12
5543.4000	1.0318e-10	2.1962e-12
5544.6500	1.0107e-10	2.1840e-12
5545.9000	1.0070e-10	2.1438e-12
5547.1500	9.8708e-11	2.1152e-12
5548.4000	1.0166e-10	2.1959e-12
5549.6500	1.0642e-10	2.2872e-12
5550.9000	1.0656e-10	2.2560e-12
5552.1500	1.0598e-10	2.2119e-12
5553.4000	1.0427e-10	2.2127e-12
5554.6500	1.0189e-10	2.0722e-12
5555.9000	1.0146e-10	2.0785e-12
5557.1500	9.9990e-11	2.1012e-12
5558.4000	9.8328e-11	2.0196e-12
5559.6500	1.0001e-10	2.0081e-12
5560.9000	1.0071e-10	2.0995e-12
5562.1500	9.9426e-11	2.0177e-12
5563.4000	9.8467e-11	2.0375e-12
5564.6500	9.8799e-11	1.9878e-12
5565.9000	9.7495e-11	1.9991e-12
5567.1500	9.5249e-11	2.0123e-12
5568.4000	9.6661e-11	2.0101e-12
5569.6500	9.8429e-11	2.0901e-12
5570.9000	9.9283e-11	2.0581e-12
5572.1500	1.0142e-10	2.0879e-12
5573.4000	9.9799e-11	2.1219e-12
5574.6500	9.9715e-11	2.0204e-12
5575.9000	1.0197e-10	2.0710e-12
5577.1500	1.0181e-10	2.1332e-12
5578.4000	1.0275e-10	2.0815e-12
5579.6500	1.0179e-10	2.0556e-12
5580.9000	1.0318e-10	1.9920e-12
5582.1500	1.0282e-10	2.0829e-12
5583.4000	1.0058e-10	2.0677e-12
5584.6500	9.9918e-11	2.1151e-12
5585.9000	9.8403e-11	2.0702e-12
5587.1500	9.5076e-11	2.0063e-12
5588.4000	9.0475e-11	1.9009e-12
5589.6500	8.8788e-11	1.8910e-12
5590.9000	9.1028e-11	1.7517e-12
5592.1500	9.3498e-11	1.8399e-12
5593.4000	9.3441e-11	1.8769e-12
5594.6500	9.4242e-11	1.8438e-12
5595.9000	9.8798e-11	1.8808e-12
5597.1500	1.0272e-10	2.0647e-12
5598.4000	9.3322e-11	1.9849e-12
5599.6500	8.4766e-11	1.7045e-12
5600.9000	8.6853e-11	1.7991e-12
5602.1500	8.9300e-11	1.7976e-12
5603.4000	9.0160e-11	1.7449e-12
5604.6500	9.0882e-11	1.7555e-12
5605.9000	9.3945e-11	1.9026e-12
5607.1500	9.8086e-11	1.9726e-12
5608.4000	1.0042e-10	1.9824e-12
5609.6500	1.0041e-10	2.0310e-12
5610.9000	9.9531e-11	1.9686e-12
5612.1500	1.0048e-10	2.0349e-12
5613.4000	1.0266e-10	2.0832e-12
5614.6500	9.9948e-11	2.0763e-12
5615.9000	9.0997e-11	1.7524e-12
5617.1500	8.9817e-11	1.7349e-12
5618.4000	9.4006e-11	1.9232e-12
5619.6500	9.2903e-11	1.8458e-12
5620.9000	9.1793e-11	1.7560e-12
5622.1500	9.5078e-11	1.9119e-12
5623.4000	9.7703e-11	2.0066e-12
5624.6500	9.1819e-11	1.8327e-12
5625.9000	8.7412e-11	1.6835e-12
5627.1500	9.1753e-11	1.8217e-12
5628.4000	9.4593e-11	1.8871e-12
5629.6500	9.3092e-11	1.7385e-12
5630.9000	9.2794e-11	1.7475e-12
5632.1500	9.5488e-11	1.8860e-12
5633.4000	9.8355e-11	1.9275e-12
5634.6500	9.9795e-11	1.9739e-12
5635.9000	9.7712e-11	1.9294e-12
5637.1500	9.3924e-11	1.7763e-12
5638.4000	9.2947e-11	1.7152e-12
5639.6500	9.3733e-11	1.8367e-12
5640.9000	9.3174e-11	1.8284e-12
5642.1500	9.2174e-11	1.7704e-12
5643.4000	9.3207e-11	1.7775e-12
5644.6500	9.3896e-11	1.8383e-12
5645.9000	9.4503e-11	1.8918e-12
5647.1500	9.5508e-11	1.7724e-12
5648.4000	9.5990e-11	1.8551e-12
5649.6500	9.6771e-11	1.7733e-12
5650.9000	9.8988e-11	1.8539e-12
5652.1500	1.0250e-10	2.0564e-12
5653.4000	1.0535e-10	2.0871e-12
5654.6500	1.0488e-10	2.0154e-12
5655.9000	1.0302e-10	1.9294e-12
5657.1500	1.0169e-10	1.9855e-12
5658.4000	9.3276e-11	1.8171e-12
5659.6500	8.8088e-11	1.7400e-12
5660.9000	9.5712e-11	1.8689e-12
5662.1500	9.6991e-11	1.9618e-12
5663.4000	9.2484e-11	1.7898e-12
5664.6500	9.4250e-11	1.7564e-12
5665.9000	9.8150e-11	1.8524e-12
5667.1500	9.9333e-11	1.9474e-12
5668.4000	9.5226e-11	1.8373e-12
5669.6500	9.2524e-11	1.7779e-12
5670.9000	9.3112e-11	1.7924e-12
5672.1500	9.3657e-11	1.8202e-12
5673.4000	9.8469e-11	1.9070e-12
5674.6500	1.0315e-10	1.9458e-12
5675.9000	1.0304e-10	1.9173e-12
5677.1500	1.0450e-10	1.9673e-12
5678.4000	1.0610e-10	2.0587e-12
5679.6500	1.0377e-10	2.0002e-12
5680.9000	1.0225e-10	1.9091e-12
5682.1500	1.0203e-10	1.9738e-12
5683.4000	1.0063e-10	1.9021e-12
5684.6500	1.0239e-10	1.8426e-12
5685.9000	1.0572e-10	2.0770e-12
5687.1500	1.0248e-10	2.0159e-12
5688.4000	9.7466e-11	1.9333e-12
5689.6500	9.8228e-11	1.8334e-12
5690.9000	1.0307e-10	1.9261e-12
5692.1500	1.0759e-10	2.0160e-12
5693.4000	1.0990e-10	2.0705e-12
5694.6500	1.0854e-10	2.1275e-12
5695.9000	1.0581e-10	2.0441e-12
5697.1500	1.0528e-10	2.0053e-12
5698.4000	1.0202e-10	2.0102e-12
5699.6500	9.8538e-11	1.8782e-12
5700.9000	9.8627e-11	1.9073e-12
5702.1500	9.6300e-11	1.7833e-12
5703.4000	9.5158e-11	1.7830e-12
5704.6500	9.9852e-11	1.8208e-12
5705.9000	1.0347e-10	2.0120e-12
5707.1500	9.9935e-11	1.9245e-12
5708.4000	9.4618e-11	1.8727e-12
5709.6500	9.1439e-11	1.6898e-12
5710.9000	9.4943e-11	1.7747e-12
5712.1500	9.5887e-11	1.8184e-12
5713.4000	9.6990e-11	1.6824e-12
5714.6500	1.0360e-10	1.9891e-12
5715.9000	1.0612e-10	1.9716e-12
5717.1500	1.0567e-10	1.9659e-12
5718.4000	1.0386e-10	1.9413e-12
5719.6500	1.0447e-10	1.9695e-12
5720.9000	1.0690e-10	2.0650e-12
5722.1500	1.0974e-10	2.0946e-12
5723.4000	1.1186e-10	2.1462e-12
5724.6500	1.1025e-10	2.1000e-12
5725.9000	1.0764e-10	2.0890e-12
5727.1500	1.0178e-10	1.8676e-12
5728.4000	9.7955e-11	1.6842e-12
5729.6500	1.0418e-10	1.8862e-12
5730.9000	1.0690e-10	2.0398e-12
5732.1500	1.0312e-10	1.9116e-12
5733.4000	1.0582e-10	2.0155e-12
5734.6500	1.0986e-10	2.0734e-12
5735.9000	1.0922e-10	1.9807e-12
5737.1500	1.0695e-10	1.9696e-12
5738.4000	1.0662e-10	2.0345e-12
5739.6500	1.0679e-10	1.9912e-12
5740.9000	1.0639e-10	1.9470e-12
5742.1500	1.0839e-10	2.1287e-12
5743.4000	1.0815e-10	2.0637e-12
5744.6500	1.0848e-10	1.9898e-12
5745.9000	1.1346e-10	2.2607e-12
5747.1500	1.1549e-10	2.1937e-12
5748.4000	1.1029e-10	2.0658e-12
5749.6500	1.0776e-10	2.0015e-12
5750.9000	1.1256e-10	2.1371e-12
5752.1500	1.1353e-10	2.1093e-12
5753.4000	1.0874e-10	1.9917e-12
5754.6500	1.0530e-10	1.8883e-12
5755.9000	1.0876e-10	2.0254e-12
5757.1500	1.1463e-10	2.2292e-12
5758.4000	1.1723e-10	2.1967e-12
5759.6500	1.1473e-10	2.1528e-12
5760.9000	1.0802e-10	2.0321e-12
5762.1500	1.0160e-10	1.9288e-12
5763.4000	9.9370e-11	1.8504e-12
5764.6500	1.0490e-10	2.0385e-12
5765.9000	1.1079e-10	2.0938e-12
5767.1500	1.1129e-10	2.0571e-12
5768.4000	1.1155e-10	2.0899e-12
5769.6500	1.1191e-10	2.1112e-12
5770.9000	1.1165e-10	2.1863e-12
5772.1500	1.1072e-10	2.1526e-12
5773.4000	1.0972e-10	2.0724e-12
5774.6500	1.0911e-10	2.0290e-12
5775.9000	1.0856e-10	2.0338e-12
5777.1500	1.0839e-10	2.0423e-12
5778.4000	1.0956e-10	2.0752e-12
5779.6500	1.1069e-10	1.9942e-12
5780.9000	1.0613e-10	2.0115e-12
5782.1500	9.8950e-11	1.8849e-12
5783.4000	9.8107e-11	1.7502e-12
5784.6500	9.9863e-11	1.8724e-12
5785.9000	9.7069e-11	1.8377e-12
5787.1500	9.9039e-11	1.8594e-12
5788.4000	1.0539e-10	1.8750e-12
5789.6500	1.0881e-10	1.9890e-12
5790.9000	1.0719e-10	2.0759e-12
5792.1500	1.0454e-10	1.9506e-12
5793.4000	1.1011e-10	1.9798e-12
5794.6500	1.1630e-10	2.1700e-12
5795.9000	1.1844e-10	2.2621e-12
5797.1500	1.1530e-10	2.2357e-12
5798.4000	1.0807e-10	2.0797e-12
5799.6500	1.1019e-10	1.9921e-12
5800.9000	1.1891e-10	2.2719e-12
5802.1500	1.2210e-10	2.3949e-12
5803.4000	1.2151e-10	2.3773e-12
5804.6500	1.1594e-10	2.1919e-12
5805.9000	1.1350e-10	2.0611e-12
5807.1500	1.1570e-10	2.2071e-12
5808.4000	1.1640e-10	2.1431e-12
5809.6500	1.1586e-10	2.1488e-12
5810.9000	1.1527e-10	2.2425e-12
5812.1500	1.1431e-10	2.2482e-12
5813.4000	1.1244e-10	2.0793e-12
5814.6500	1.0987e-10	2.0140e-12
5815.9000	1.0674e-10	2.1109e-12
5817.1500	1.0603e-10	2.0643e-12
5818.4000	1.0886e-10	2.1053e-12
5819.6500	1.1175e-10	2.1628e-12
5820.9000	1.1252e-10	2.1518e-12
5822.1500	1.1277e-10	2.1619e-12
5823.4000	1.1111e-10	2.2040e-12
5824.6500	1.1003e-10	2.1827e-12
5825.9000	1.1190e-10	2.1780e-12
5827.1500	1.1313e-10	2.2448e-12
5828.4000	1.1326e-10	2.2117e-12
5829.6500	1.1403e-10	2.2065e-12
5830.9000	1.1478e-10	2.1932e-12
5832.1500	1.1470e-10	2.1930e-12
5833.4000	1.1502e-10	2.1574e-12
5834.6500	1.1319e-10	2.2089e-12
5835.9000	1.1159e-10	2.1347e-12
5837.1500	1.1413e-10	2.2767e-12
5838.4000	1.1331e-10	2.2192e-12
5839.6500	1.0947e-10	2.0195e-12
5840.9000	1.1119e-10	2.0970e-12
5842.1500	1.1568e-10	2.2265e-12
5843.4000	1.1737e-10	2.2506e-12
5844.6500	1.1661e-10	2.2663e-12
5845.9000	1.1490e-10	2.2247e-12
5847.1500	1.1117e-10	2.1988e-12
5848.4000	1.0766e-10	2.0617e-12
5849.6500	1.0714e-10	2.1135e-12
5850.9000	1.0633e-10	2.0664e-12
5852.1500	1.0326e-10	2.0432e-12
5853.4000	9.9500e-11	1.9075e-12
5854.6500	1.0021e-10	1.9172e-12
5855.9000	1.0358e-10	2.0809e-12
5857.1500	1.0155e-10	2.0580e-12
5858.4000	9.7697e-11	1.9237e-12
5859.6500	1.0029e-10	1.9702e-12
5860.9000	1.0523e-10	2.1654e-12
5862.1500	1.0540e-10	2.0289e-12
5863.4000	1.0145e-10	1.9471e-12
5864.6500	1.0065e-10	1.9349e-12
5865.9000	1.0124e-10	2.0226e-12
5867.1500	9.7750e-11	1.9067e-12
5868.4000	9.7724e-11	1.9047e-12
5869.6500	1.0288e-10	1.9714e-12
5870.9000	1.0619e-10	2.0759e-12
5872.1500	1.0585e-10	2.0642e-12
5873.4000	1.0252e-10	1.9990e-12
5874.6500	1.0154e-10	2.0460e-12
5875.9000	1.0318e-10	1.9803e-12
5877.1500	1.0179e-10	1.9801e-12
5878.4000	9.9622e-11	1.9596e-12
5879.6500	9.7246e-11	1.9101e-12
5880.9000	9.4125e-11	1.9082e-12
5882.1500	9.7183e-11	1.9600e-12
5883.4000	1.0162e-10	2.0194e-12
5884.6500	1.0122e-10	1.9880e-12
5885.9000	1.0129e-10	1.9958e-12
5887.1500	1.0204e-10	2.1033e-12
5888.4000	9.6404e-11	1.9414e-12
5889.6500	7.7948e-11	1.4993e-12
5890.9000	6.3623e-11	1.2598e-12
5892.1500	7.5248e-11	1.6269e-12
5893.4000	9.0566e-11	1.8814e-12
5894.6500	9.1535e-11	1.9020e-12
5895.9000	7.9794e-11	1.6148e-12
5897.1500	7.2640e-11	1.4200e-12
5898.4000	8.3924e-11	1.6378e-12
5899.6500	8.9558e-11	1.8102e-12
5900.9000	8.9626e-11	1.8044e-12
5902.1500	9.4080e-11	1.9199e-12
5903.4000	9.5632e-11	1.9072e-12
5904.6500	9.5240e-11	1.8793e-12
5905.9000	9.3763e-11	1.8687e-12
5907.1500	9.2525e-11	1.8453e-12
5908.4000	9.4456e-11	1.9031e-12
5909.6500	9.6181e-11	2.0161e-12
5910.9000	9.6665e-11	1.9722e-12
5912.1500	9.7602e-11	1.9409e-12
5913.4000	9.5528e-11	1.9990e-12
5914.6500	9.0986e-11	1.8802e-12
5915.9000	9.0358e-11	1.8742e-12
5917.1500	9.2359e-11	1.8046e-12
5918.4000	9.4323e-11	1.8194e-12
5919.6500	9.5299e-11	1.9048e-12
5920.9000	9.7234e-11	2.0263e-12
5922.1500	9.5464e-11	1.9559e-12
5923.4000	9.2396e-11	1.9487e-12
5924.6500	9.4375e-11	1.9066e-12
5925.9000	9.6277e-11	1.9146e-12
5927.1500	9.7286e-11	1.9704e-12
5928.4000	9.7976e-11	1.9987e-12
5929.6500	9.7302e-11	1.9684e-12
5930.9000	9.6422e-11	1.9775e-12
5932.1500	9.8550e-11	1.9552e-12
5933.4000	1.0116e-10	2.0900e-12
5934.6500	9.8447e-11	2.0243e-12
5935.9000	9.4926e-11	1.9583e-12
5937.1500	9.7313e-11	1.9549e-12
5938.4000	9.9155e-11	1.9849e-12
5939.6500	1.0063e-10	2.0352e-12
5940.9000	9.9175e-11	2.1512e-12
5942.1500	9.5313e-11	1.9499e-12
5943.4000	9.8463e-11	2.0161e-12
5944.6500	1.0118e-10	2.0305e-12
5945.9000	1.0303e-10	2.1737e-12
5947.1500	1.0598e-10	2.2423e-12
5948.4000	1.0340e-10	2.1967e-12
5949.6500	9.7201e-11	1.9900e-12
5950.9000	9.6111e-11	1.9980e-12
5952.1500	9.8685e-11	2.0360e-12
5953.4000	9.7274e-11	2.0606e-12
5954.6500	9.7512e-11	2.0638e-12
5955.9000	9.7118e-11	2.0174e-12
5957.1500	9.2775e-11	1.8562e-12
5958.4000	9.3260e-11	1.9347e-12
5959.6500	9.7448e-11	2.0325e-12
5960.9000	1.0139e-10	2.0991e-12
5962.1500	1.0339e-10	2.1223e-12
5963.4000	1.0267e-10	2.0857e-12
5964.6500	1.0139e-10	2.0261e-12
5965.9000	9.9610e-11	2.0157e-12
5967.1500	9.9866e-11	2.0348e-12
5968.4000	1.0363e-10	2.2293e-12
5969.6500	1.0549e-10	2.2612e-12
5970.9000	1.0619e-10	2.2450e-12
5972.1500	1.0628e-10	2.2451e-12
5973.4000	1.0545e-10	2.2184e-12
5974.6500	1.0494e-10	2.2193e-12
5975.9000	1.0375e-10	2.2064e-12
5977.1500	1.0204e-10	2.1620e-12
5978.4000	9.9375e-11	2.1321e-12
5979.6500	9.8790e-11	1.9959e-12
5980.9000	1.0134e-10	2.1439e-12
5982.1500	1.0322e-10	2.1615e-12
5983.4000	1.0189e-10	2.2057e-12
5984.6500	9.7476e-11	2.1731e-12
5985.9000	9.8553e-11	2.0677e-12
5987.1500	1.0495e-10	2.2909e-12
5988.4000	1.0631e-10	2.2527e-12
5989.6500	1.0589e-10	2.2146e-12
5990.9000	1.0672e-10	2.3077e-12
5992.1500	1.0627e-10	2.1533e-12
5993.4000	1.0848e-10	2.2279e-12
5994.6500	1.1305e-10	2.3848e-12
5995.9000	1.1285e-10	2.4198e-12
5997.1500	1.1011e-10	2.3017e-12
5998.4000	1.0848e-10	2.3103e-12
5999.6500	1.0656e-10	2.2925e-12
6000.9000	1.0542e-10	2.1680e-12
6002.1500	1.0502e-10	2.1513e-12
6003.4000	1.0354e-10	2.1940e-12
6004.6500	1.0650e-10	2.3404e-12
6005.9000	1.0885e-10	2.3912e-12
6007.1500	1.0568e-10	2.2475e-12
6008.4000	1.0214e-10	2.1672e-12
6009.6500	1.0328e-10	2.2016e-12
6010.9000	1.0884e-10	2.3908e-12
6012.1500	1.1026e-10	2.4170e-12
6013.4000	1.0622e-10	2.2665e-12
6014.6500	1.0548e-10	2.2714e-12
6015.9000	1.0866e-10	2.3860e-12
6017.1500	1.0694e-10	2.2913e-12
6018.4000	1.0442e-10	2.2215e-12
6019.6500	1.0624e-10	2.2890e-12
6020.9000	1.0847e-10	2.3619e-12
6022.1500	1.0973e-10	2.4219e-12
6023.4000	1.1095e-10	2.4419e-12
6024.6500	1.1127e-10	2.4137e-12
6025.9000	1.1208e-10	2.4110e-12
6027.1500	1.1357e-10	2.5224e-12
6028.4000	1.1434e-10	2.5083e-12
6029.6500	1.1628e-10	2.5948e-12
6030.9000	1.1531e-10	2.5733e-12
6032.1500	1.1196e-10	2.4292e-12
6033.4000	1.1385e-10	2.4843e-12
6034.6500	1.1835e-10	2.5209e-12
6035.9000	1.1942e-10	2.5540e-12
6037.1500	1.1819e-10	2.5528e-12
6038.4000	1.1787e-10	2.5692e-12
6039.6500	1.1648e-10	2.5431e-12
6040.9000	1.1494e-10	2.4568e-12
6042.1500	1.1700e-10	2.5139e-12
6043.4000	1.1942e-10	2.6772e-12
6044.6500	1.2164e-10	2.6085e-12
6045.9000	1.2305e-10	2.7279e-12
6047.1500	1.2378e-10	2.7572e-12
6048.4000	1.2358e-10	2.7205e-12
6049.6500	1.2193e-10	2.7497e-12
6050.9000	1.2231e-10	2.6332e-12
6052.1500	1.2278e-10	2.6184e-12
6053.4000	1.2136e-10	2.6607e-12
6054.6500	1.2040e-10	2.7209e-12
6055.9000	1.1997e-10	2.5923e-12
6057.1500	1.1802e-10	2.5680e-12
6058.4000	1.1385e-10	2.5202e-12
6059.6500	1.1473e-10	2.5277e-12
6060.9000	1.1986e-10	2.6307e-12
6062.1500	1.2109e-10	2.7988e-12
6063.4000	1.1753e-10	2.5871e-12
6064.6500	1.1322e-10	2.5338e-12
6065.9000	1.0960e-10	2.3732e-12
6067.1500	1.1448e-10	2.4379e-12
6068.4000	1.2314e-10	2.7704e-12
6069.6500	1.2537e-10	2.8195e-12
6070.9000	1.2627e-10	2.8883e-12
6072.1500	1.2700e-10	2.8981e-12
6073.4000	1.2649e-10	2.8857e-12
6074.6500	1.2626e-10	2.8111e-12
6075.9000	1.2634e-10	2.7789e-12
6077.1500	1.2550e-10	2.8329e-12
6078.4000	1.2314e-10	2.7554e-12
6079.6500	1.2050e-10	2.6545e-12
6080.9000	1.1988e-10	2.6798e-12
6082.1500	1.1628e-10	2.6069e-12
6083.4000	1.1491e-10	2.5643e-12
6084.6500	1.1934e-10	2.6930e-12
6085.9000	1.1936e-10	2.7638e-12
6087.1500	1.1930e-10	2.6866e-12
6088.4000	1.2255e-10	2.7706e-12
6089.6500	1.2094e-10	2.7296e-12
6090.9000	1.1424e-10	2.5654e-12
6092.1500	1.1354e-10	2.5584e-12
6093.4000	1.1598e-10	2.6241e-12
6094.6500	1.1868e-10	2.6390e-12
6095.9000	1.2471e-10	2.7628e-12
6097.1500	1.2426e-10	2.7565e-12
6098.4000	1.2126e-10	2.6254e-12
6099.6500	1.2364e-10	2.7681e-12
6100.9000	1.2664e-10	2.8899e-12
6102.1500	1.2122e-10	2.7836e-12
6103.4000	1.1026e-10	2.5077e-12
6104.6500	1.1202e-10	2.4571e-12
6105.9000	1.2076e-10	2.7463e-12
6107.1500	1.2222e-10	2.8078e-12
6108.4000	1.1990e-10	2.7023e-12
6109.6500	1.2087e-10	2.6917e-12
6110.9000	1.2205e-10	2.7641e-12
6112.1500	1.1875e-10	2.6906e-12
6113.4000	1.2090e-10	2.7840e-12
6114.6500	1.2686e-10	2.9292e-12
6115.9000	1.2723e-10	2.9591e-12
6117.1500	1.2374e-10	2.8288e-12
6118.4000	1.2385e-10	2.8159e-12
6119.6500	1.2218e-10	2.8818e-12
6120.9000	1.1449e-10	2.6738e-12
6122.1500	1.0759e-10	2.4824e-12
6123.4000	1.0923e-10	2.4681e-12
6124.6500	1.2053e-10	2.7507e-12
6125.9000	1.2374e-10	2.9006e-12
6127.1500	1.1839e-10	2.7074e-12
6128.4000	1.1482e-10	2.6313e-12
6129.6500	1.1660e-10	2.6946e-12
6130.9000	1.2397e-10	2.8795e-12
6132.1500	1.2869e-10	2.9855e-12
6133.4000	1.2870e-10	3.0028e-12
6134.6500	1.2334e-10	2.9692e-12
6135.9000	1.1286e-10	2.7177e-12
6137.1500	1.0345e-10	2.3456e-12
6138.4000	1.0301e-10	2.2887e-12
6139.6500	1.1670e-10	2.5915e-12
6140.9000	1.2590e-10	2.8961e-12
6142.1500	1.2199e-10	2.7488e-12
6143.4000	1.2021e-10	2.6598e-12
6144.6500	1.2555e-10	2.8438e-12
6145.9000	1.2845e-10	2.9490e-12
6147.1500	1.2753e-10	2.9416e-12
6148.4000	1.2548e-10	2.9123e-12
6149.6500	1.1745e-10	2.7938e-12
6150.9000	1.1059e-10	2.4882e-12
6152.1500	1.1503e-10	2.5134e-12
6153.4000	1.2231e-10	2.8502e-12
6154.6500	1.2219e-10	2.8418e-12
6155.9000	1.1853e-10	2.7032e-12
6157.1500	1.1753e-10	2.6622e-12
6158.4000	1.1340e-10	2.6295e-12
6159.6500	1.0539e-10	2.4590e-12
6160.9000	9.8133e-11	2.3519e-12
6162.1500	8.8367e-11	2.0522e-12
6163.4000	8.3009e-11	1.8674e-12
6164.6500	8.8627e-11	2.1277e-12
6165.9000	9.5027e-11	2.2788e-12
6167.1500	9.7483e-11	2.3088e-12
6168.4000	9.9676e-11	2.3808e-12
6169.6500	9.5647e-11	2.2924e-12
6170.9000	9.1196e-11	1.9645e-12
6172.1500	9.8302e-11	2.3314e-12
6173.4000	1.0256e-10	2.3987e-12
6174.6500	9.8409e-11	2.2329e-12
6175.9000	9.6559e-11	2.2055e-12
6177.1500	9.8375e-11	2.3252e-12
6178.4000	1.0079e-10	2.3695e-12
6179.6500	1.0403e-10	2.3237e-12
6180.9000	1.0490e-10	2.3833e-12
6182.1500	1.0572e-10	2.4169e-12
6183.4000	1.0634e-10	2.5485e-12
6184.6500	1.0405e-10	2.4268e-12
6185.9000	1.0093e-10	2.3464e-12
6187.1500	9.3824e-11	2.1779e-12
6188.4000	8.9437e-11	2.0911e-12
6189.6500	8.8801e-11	2.1542e-12
6190.9000	8.5687e-11	2.0823e-12
6192.1500	8.1538e-11	1.9250e-12
6193.4000	8.4499e-11	1.9939e-12
6194.6500	9.1374e-11	2.1400e-12
6195.9000	9.5039e-11	2.2387e-12
6197.1500	9.7401e-11	2.3670e-12
6198.4000	9.8167e-11	2.4261e-12
6199.6500	9.4109e-11	2.2522e-12
6200.9000	9.1316e-11	2.1560e-12
6202.1500	9.5490e-11	2.2830e-12
6203.4000	1.0034e-10	2.4748e-12
6204.6500	1.0130e-10	2.4454e-12
6205.9000	9.9882e-11	2.3406e-12
6207.1500	1.0114e-10	2.3614e-12
6208.4000	1.0347e-10	2.4713e-12
6209.6500	1.0305e-10	2.5010e-12
6210.9000	9.8867e-11	2.4224e-12
6212.1500	9.5825e-11	2.3281e-12
6213.4000	9.3136e-11	2.1851e-12
6214.6500	8.6365e-11	2.0609e-12
6215.9000	8.0542e-11	1.9420e-12
6217.1500	8.0261e-11	1.9038e-12
6218.4000	8.6156e-11	2.1145e-12
6219.6500	8.8564e-11	2.0931e-12
6220.9000	8.7409e-11	2.0510e-12
6222.1500	8.6443e-11	2.0443e-12
6223.4000	8.3509e-11	2.0751e-12
6224.6500	8.0195e-11	1.8645e-12
6225.9000	8.1422e-11	1.9296e-12
6227.1500	8.4683e-11	2.0023e-12
6228.4000	8.6027e-11	2.1598e-12
6229.6500	8.4761e-11	2.1112e-12
6230.9000	7.8895e-11	1.9100e-12
6232.1500	7.7390e-11	1.9119e-12
6233.4000	8.1977e-11	1.8955e-12
6234.6500	8.7530e-11	2.1176e-12
6235.9000	9.2635e-11	2.2696e-12
6237.1500	9.3102e-11	2.2710e-12
6238.4000	9.0913e-11	2.2321e-12
6239.6500	8.4039e-11	2.0529e-12
6240.9000	7.8820e-11	1.9582e-12
6242.1500	8.3422e-11	2.0347e-12
6243.4000	8.2429e-11	2.0017e-12
6244.6500	8.0616e-11	2.0439e-12
6245.9000	8.5554e-11	2.0841e-12
6247.1500	8.9153e-11	2.2283e-12
6248.4000	9.3669e-11	2.3549e-12
6249.6500	9.5275e-11	2.2935e-12
6250.9000	9.4973e-11	2.3415e-12
6252.1500	9.2509e-11	2.2403e-12
6253.4000	8.9513e-11	2.1749e-12
6254.6500	9.1120e-11	2.2096e-12
6255.9000	9.3021e-11	2.2641e-12
6257.1500	8.8870e-11	2.2622e-12
6258.4000	7.8652e-11	2.0102e-12
6259.6500	7.7142e-11	1.9089e-12
6260.9000	8.6951e-11	2.0844e-12
6262.1500	9.2751e-11	2.3107e-12
6263.4000	9.8329e-11	2.3939e-12
6264.6500	1.0253e-10	2.4755e-12
6265.9000	9.8026e-11	2.4541e-12
6267.1500	9.5836e-11	2.4032e-12
6268.4000	9.5873e-11	2.3549e-12
6269.6500	9.3128e-11	2.2810e-12
6270.9000	9.5904e-11	2.2401e-12
6272.1500	1.0161e-10	2.3916e-12
6273.4000	1.0212e-10	2.4372e-12
6274.6500	9.8174e-11	2.3702e-12
6275.9000	9.5086e-11	2.1793e-12
6277.1500	9.7411e-11	2.3370e-12
6278.4000	1.0187e-10	2.6581e-12
6279.6500	1.0345e-10	2.5828e-12
6280.9000	9.9596e-11	2.4912e-12
6282.1500	9.8474e-11	2.4799e-12
6283.4000	1.0137e-10	2.4802e-12
6284.6500	1.0420e-10	2.5047e-12
6285.9000	1.0445e-10	2.5899e-12
6287.1500	1.0664e-10	2.6157e-12
6288.4000	1.1155e-10	2.6657e-12
6289.6500	1.1367e-10	2.8614e-12
6290.9000	1.1206e-10	2.7059e-12
6292.1500	1.0930e-10	2.6727e-12
6293.4000	1.0550e-10	2.6143e-12
6294.6500	1.0504e-10	2.5453e-12
6295.9000	1.0377e-10	2.6512e-12
6297.1500	9.6686e-11	2.3144e-12
6298.4000	9.8180e-11	2.2717e-12
6299.6500	1.0657e-10	2.7149e-12
6300.9000	1.0842e-10	2.7226e-12
6302.1500	1.0638e-10	2.6177e-12
6303.4000	1.0610e-10	2.6043e-12
6304.6500	1.0716e-10	2.6182e-12
6305.9000	1.0550e-10	2.6245e-12
6307.1500	1.0682e-10	2.5982e-12
6308.4000	1.1426e-10	2.8103e-12
6309.6500	1.1749e-10	2.9005e-12
6310.9000	1.1585e-10	2.9123e-12
6312.1500	1.1137e-10	2.8437e-12
6313.4000	1.1064e-10	2.6556e-12
6314.6500	1.1319e-10	2.7893e-12
6315.9000	1.1185e-10	2.7257e-12
6317.1500	1.1296e-10	2.7028e-12
6318.4000	1.1196e-10	2.7945e-12
6319.6500	1.0979e-10	2.6144e-12
6320.9000	1.1399e-10	2.8140e-12
6322.1500	1.1520e-10	2.9008e-12
6323.4000	1.1469e-10	2.7761e-12
6324.6500	1.1655e-10	2.8550e-12
6325.9000	1.1559e-10	2.9049e-12
6327.1500	1.1503e-10	2.8087e-12
6328.4000	1.1733e-10	2.8503e-12
6329.6500	1.1971e-10	2.9428e-12
6330.9000	1.1862e-10	2.8968e-12
6332.1500	1.2022e-10	2.8309e-12
6333.4000	1.2531e-10	2.9869e-12
6334.6500	1.2504e-10	3.1524e-12
6335.9000	1.1666e-10	2.8726e-12
6337.1500	1.1144e-10	2.5935e-12
6338.4000	1.1781e-10	2.9791e-12
6339.6500	1.2223e-10	3.0397e-12
6340.9000	1.2432e-10	3.0004e-12
6342.1500	1.2622e-10	3.1371e-12
6343.4000	1.2328e-10	3.1513e-12
6344.6500	1.1603e-10	2.8207e-12
6345.9000	1.1286e-10	2.7059e-12
6347.1500	1.1849e-10	2.9399e-12
6348.4000	1.2386e-10	3.1599e-12
6349.6500	1.2505e-10	3.0640e-12
6350.9000	1.2498e-10	3.1168e-12
6352.1500	1.2445e-10	3.0883e-12
6353.4000	1.2297e-10	3.1113e-12
6354.6500	1.1947e-10	3.0295e-12
6355.9000	1.1626e-10	2.7477e-12
6357.1500	1.1745e-10	2.9513e-12
6358.4000	1.1477e-10	2.9844e-12
6359.6500	1.0780e-10	2.6614e-12
6360.9000	1.0695e-10	2.6194e-12
6362.1500	1.0914e-10	2.8235e-12
6363.4000	1.0897e-10	2.6697e-12
6364.6500	1.0971e-10	2.6430e-12
6365.9000	1.1313e-10	2.7979e-12
6367.1500	1.1684e-10	2.8330e-12
6368.4000	1.2288e-10	3.1257e-12
6369.6500	1.2742e-10	3.2528e-12
6370.9000	1.2678e-10	3.1328e-12
6372.1500	1.2651e-10	3.1321e-12
6373.4000	1.2895e-10	3.2438e-12
6374.6500	1.3018e-10	3.2211e-12
6375.9000	1.2969e-10	3.1675e-12
6377.1500	1.3015e-10	3.2434e-12
6378.4000	1.2759e-10	3.2658e-12
6379.6500	1.2164e-10	3.0862e-12
6380.9000	1.2105e-10	3.0618e-12
6382.1500	1.2407e-10	3.0498e-12
6383.4000	1.2743e-10	3.1772e-12
6384.6500	1.2761e-10	3.2293e-12
6385.9000	1.2491e-10	3.1052e-12
6387.1500	1.2579e-10	3.1549e-12
6388.4000	1.2693e-10	3.1812e-12
6389.6500	1.2705e-10	3.1445e-12
6390.9000	1.2721e-10	3.1864e-12
6392.1500	1.2643e-10	3.1733e-12
6393.4000	1.2054e-10	3.0118e-12
6394.6500	1.1619e-10	2.9535e-12
6395.9000	1.2148e-10	3.1353e-12
6397.1500	1.2831e-10	3.1859e-12
6398.4000	1.3163e-10	3.3563e-12
6399.6500	1.2748e-10	3.2007e-12
6400.9000	1.1770e-10	2.8238e-12
6402.1500	1.2109e-10	3.1404e-12
6403.4000	1.3140e-10	3.2622e-12
6404.6500	1.3421e-10	3.3271e-12
6405.9000	1.3329e-10	3.2353e-12
6407.1500	1.3082e-10	3.2164e-12
6408.4000	1.2760e-10	3.2028e-12
6409.6500	1.2885e-10	3.1912e-12
6410.9000	1.3202e-10	3.3285e-12
6412.1500	1.2746e-10	3.1248e-12
6413.4000	1.2198e-10	3.0160e-12
6414.6500	1.2253e-10	2.9693e-12
6415.9000	1.2666e-10	3.1296e-12
6417.1500	1.2942e-10	3.2286e-12
6418.4000	1.2835e-10	3.1780e-12
6419.6500	1.2488e-10	3.0385e-12
6420.9000	1.1996e-10	3.0021e-12
6422.1500	1.1715e-10	2.9785e-12
6423.4000	1.2346e-10	3.1730e-12
6424.6500	1.2966e-10	3.1789e-12
6425.9000	1.2950e-10	3.1690e-12
6427.1500	1.3032e-10	3.2683e-12
6428.4000	1.3131e-10	3.2535e-12
6429.6500	1.2907e-10	3.2278e-12
6430.9000	1.2075e-10	3.0030e-12
6432.1500	1.1714e-10	2.9883e-12
6433.4000	1.2419e-10	3.0627e-12
6434.6500	1.2865e-10	3.1813e-12
6435.9000	1.2815e-10	3.2096e-12
6437.1500	1.3011e-10	3.3159e-12
6438.4000	1.3004e-10	3.2691e-12
6439.6500	1.2408e-10	3.1528e-12
6440.9000	1.2647e-10	3.1447e-12
6442.1500	1.3477e-10	3.3289e-12
6443.4000	1.3727e-10	3.3723e-12
6444.6500	1.3736e-10	3.3944e-12
6445.9000	1.3640e-10	3.4814e-12
6447.1500	1.3562e-10	3.3467e-12
6448.4000	1.3196e-10	3.3675e-12
6449.6500	1.2050e-10	3.1143e-12
6450.9000	1.0996e-10	2.8035e-12
6452.1500	1.1460e-10	2.7793e-12
6453.4000	1.2513e-10	3.0393e-12
6454.6500	1.3099e-10	3.2036e-12
6455.9000	1.2997e-10	3.3062e-12
6457.1500	1.2919e-10	3.2613e-12
6458.4000	1.3416e-10	3.3686e-12
6459.6500	1.3751e-10	3.4179e-12
6460.9000	1.3826e-10	3.4007e-12
6462.1500	1.3306e-10	3.4209e-12
6463.4000	1.2264e-10	3.1514e-12
6464.6500	1.2374e-10	3.0067e-12
6465.9000	1.3205e-10	3.2282e-12
6467.1500	1.3467e-10	3.3165e-12
6468.4000	1.3579e-10	3.3572e-12
6469.6500	1.3576e-10	3.3227e-12
6470.9000	1.3429e-10	3.2935e-12
6472.1500	1.3188e-10	3.2229e-12
6473.4000	1.3159e-10	3.2174e-12
6474.6500	1.3031e-10	3.2119e-12
6475.9000	1.2642e-10	3.2159e-12
6477.1500	1.2953e-10	3.2170e-12
6478.4000	1.3410e-10	3.3252e-12
6479.6500	1.3385e-10	3.3904e-12
6480.9000	1.3179e-10	3.3238e-12
6482.1500	1.2581e-10	3.2624e-12
6483.4000	1.1955e-10	3.0005e-12
6484.6500	1.2102e-10	3.0085e-12
6485.9000	1.2555e-10	3.1398e-12
6487.1500	1.2840e-10	3.2332e-12
6488.4000	1.2964e-10	3.1926e-12
6489.6500	1.2890e-10	3.1914e-12
6490.9000	1.2588e-10	3.1553e-12
6492.1500	1.2460e-10	3.1210e-12
6493.4000	1.2423e-10	3.1282e-12
6494.6500	1.1576e-10	2.9924e-12
6495.9000	1.0736e-10	2.6871e-12
6497.1500	1.0722e-10	2.6543e-12
6498.4000	1.1002e-10	2.8189e-12
6499.6500	1.1167e-10	2.7796e-12
6500.9000	1.1537e-10	2.8483e-12
6502.1500	1.2171e-10	2.9800e-12
6503.4000	1.2598e-10	3.1417e-12
6504.6500	1.2696e-10	3.2382e-12
6505.9000	1.2763e-10	3.2339e-12
6507.1500	1.2987e-10	3.2307e-12
6508.4000	1.2642e-10	3.2720e-12
6509.6500	1.2312e-10	3.0150e-12
6510.9000	1.2759e-10	3.1561e-12
6512.1500	1.3146e-10	3.2797e-12
6513.4000	1.3057e-10	3.3314e-12
6514.6500	1.3018e-10	3.2268e-12
6515.9000	1.2975e-10	3.2399e-12
6517.1500	1.2922e-10	3.1556e-12
6518.4000	1.2781e-10	3.2346e-12
6519.6500	1.2645e-10	3.1415e-12
6520.9000	1.2993e-10	3.2350e-12
6522.1500	1.3345e-10	3.3788e-12
6523.4000	1.3380e-10	3.3448e-12
6524.6500	1.3427e-10	3.3145e-12
6525.9000	1.3488e-10	3.4353e-12
6527.1500	1.3273e-10	3.3695e-12
6528.4000	1.3164e-10	3.2326e-12
6529.6500	1.3453e-10	3.3019e-12
6530.9000	1.3543e-10	3.4469e-12
6532.1500	1.3222e-10	3.3105e-12
6533.4000	1.3037e-10	3.1737e-12
6534.6500	1.3304e-10	3.3347e-12
6535.9000	1.3710e-10	3.4054e-12
6537.1500	1.3842e-10	3.5024e-12
6538.4000	1.3572e-10	3.3723e-12
6539.6500	1.3621e-10	3.3906e-12
6540.9000	1.4009e-10	3.5091e-12
6542.1500	1.3999e-10	3.5805e-12
6543.4000	1.3494e-10	3.4496e-12
6544.6500	1.2982e-10	3.2654e-12
6545.9000	1.2837e-10	3.2220e-12
6547.1500	1.2576e-10	3.1598e-12
6548.4000	1.2821e-10	3.1145e-12
6549.6500	1.3221e-10	3.3665e-12
6550.9000	1.3016e-10	3.3104e-12
6552.1500	1.2641e-10	3.0999e-12
6553.4000	1.2733e-10	3.3173e-12
6554.6500	1.2615e-10	3.2622e-12
6555.9000	1.2107e-10	2.9755e-12
6557.1500	1.2122e-10	2.9973e-12
6558.4000	1.2631e-10	3.1726e-12
6559.6500	1.3080e-10	3.3144e-12
6560.9000	1.3237e-10	3.3054e-12
6562.1500	1.2331e-10	3.4483e-12
6563.4000	9.4837e-11	2.2306e-12
6564.6500	9.4800e-11	2.0130e-12
6565.9000	1.2094e-10	3.2521e-12
6567.1500	1.2984e-10	3.2098e-12
6568.4000	1.3222e-10	3.3525e-12
6569.6500	1.3006e-10	3.2069e-12
6570.9000	1.2911e-10	3.1455e-12
6572.1500	1.3024e-10	3.3867e-12
6573.4000	1.2306e-10	3.0763e-12
6574.6500	1.1821e-10	2.8371e-12
6575.9000	1.2165e-10	2.9964e-12
6577.1500	1.2818e-10	3.2329e-12
6578.4000	1.3195e-10	3.3428e-12
6579.6500	1.3048e-10	3.2799e-12
6580.9000	1.2711e-10	3.1379e-12
6582.1500	1.2500e-10	3.0662e-12
6583.4000	1.2953e-10	3.2999e-12
6584.6500	1.3386e-10	3.3762e-12
6585.9000	1.3258e-10	3.3498e-12
6587.1500	1.3082e-10	3.1742e-12
6588.4000	1.3386e-10	3.3999e-12
6589.6500	1.3650e-10	3.4636e-12
6590.9000	1.3573e-10	3.3758e-12
6592.1500	1.3190e-10	3.3619e-12
6593.4000	1.2270e-10	3.0228e-12
6594.6500	1.1836e-10	2.9232e-12
6595.9000	1.2525e-10	3.2041e-12
6597.1500	1.3136e-10	3.4016e-12
6598.4000	1.2953e-10	3.3536e-12
6599.6500	1.2429e-10	3.0938e-12
6600.9000	1.2685e-10	3.1708e-12
6602.1500	1.3336e-10	3.3977e-12
6603.4000	1.3447e-10	3.3346e-12
6604.6500	1.3236e-10	3.2317e-12
6605.9000	1.2765e-10	3.1440e-12
6607.1500	1.2506e-10	3.1366e-12
6608.4000	1.2430e-10	3.1628e-12
6609.6500	1.2124e-10	2.9773e-12
6610.9000	1.2338e-10	3.1410e-12
6612.1500	1.3140e-10	3.4341e-12
6613.4000	1.3256e-10	3.4024e-12
6614.6500	1.2885e-10	3.1455e-12
6615.9000	1.3065e-10	3.2498e-12
6617.1500	1.3366e-10	3.3218e-12
6618.4000	1.3277e-10	3.2785e-12
6619.6500	1.3138e-10	3.2638e-12
6620.9000	1.3200e-10	3.2697e-12
6622.1500	1.3274e-10	3.3707e-12
6623.4000	1.3067e-10	3.2274e-12
6624.6500	1.2524e-10	3.0288e-12
6625.9000	1.2013e-10	2.9806e-12
6627.1500	1.2271e-10	3.1254e-12
6628.4000	1.2750e-10	3.1588e-12
6629.6500	1.2774e-10	3.1988e-12
6630.9000	1.2634e-10	3.1971e-12
6632.1500	1.2666e-10	3.2023e-12
6633.4000	1.2596e-10	3.1811e-12
6634.6500	1.2415e-10	3.1182e-12
6635.9000	1.2499e-10	3.1333e-12
6637.1500	1.2718e-10	3.1727e-12
6638.4000	1.2886e-10	3.2236e-12
6639.6500	1.2914e-10	3.1689e-12
6640.9000	1.2879e-10	3.1108e-12
6642.1500	1.3029e-10	3.3076e-12
6643.4000	1.2877e-10	3.1241e-12
6644.6500	1.2407e-10	3.0797e-12
6645.9000	1.2577e-10	3.2413e-12
6647.1500	1.2887e-10	3.2759e-12
6648.4000	1.2777e-10	3.1703e-12
6649.6500	1.2747e-10	3.1326e-12
6650.9000	1.2572e-10	3.1717e-12
6652.1500	1.1956e-10	2.9968e-12
6653.4000	1.1754e-10	2.9402e-12
6654.6500	1.2055e-10	2.9434e-12
6655.9000	1.2210e-10	3.0289e-12
6657.1500	1.2133e-10	3.0850e-12
6658.4000	1.2083e-10	3.0294e-12
6659.6500	1.2201e-10	3.0866e-12
6660.9000	1.2239e-10	3.0613e-12
6662.1500	1.2166e-10	3.0436e-12
6663.4000	1.1890e-10	2.9215e-12
6664.6500	1.1700e-10	2.8492e-12
6665.9000	1.1962e-10	3.0066e-12
6667.1500	1.1960e-10	2.9529e-12
6668.4000	1.1884e-10	2.9835e-12
6669.6500	1.2244e-10	3.0878e-12
6670.9000	1.2668e-10	3.2022e-12
6672.1500	1.2866e-10	3.1665e-12
6673.4000	1.2875e-10	3.2010e-12
6674.6500	1.2805e-10	3.2664e-12
6675.9000	1.2775e-10	3.1725e-12
6677.1500	1.2570e-10	3.0311e-12
6678.4000	1.1744e-10	2.9624e-12
6679.6500	1.1378e-10	2.8887e-12
6680.9000	1.1696e-10	2.9251e-12
6682.1500	1.1388e-10	2.8065e-12
6683.4000	1.1258e-10	2.8792e-12
6684.6500	1.1668e-10	2.9186e-12
6685.9000	1.1854e-10	2.8824e-12
6687.1500	1.1779e-10	2.8917e-12
6688.4000	1.1672e-10	2.9352e-12
6689.6500	1.1677e-10	2.9522e-12
6690.9000	1.1785e-10	2.9129e-12
6692.1500	1.1837e-10	3.0216e-12
6693.4000	1.1872e-10	2.9509e-12
6694.6500	1.1888e-10	3.0115e-12
6695.9000	1.1753e-10	2.9632e-12
6697.1500	1.1503e-10	2.9273e-12
6698.4000	1.1599e-10	2.9313e-12
6699.6500	1.1862e-10	2.9988e-12
6700.9000	1.2124e-10	3.0647e-12
6702.1500	1.2311e-10	3.0577e-12
6703.4000	1.2235e-10	3.0613e-12
6704.6500	1.2049e-10	3.0032e-12
6705.9000	1.1982e-10	2.9761e-12
6707.1500	1.2103e-10	3.0753e-12
6708.4000	1.2298e-10	3.1339e-12
6709.6500	1.2348e-10	3.1361e-12
6710.9000	1.2106e-10	3.0217e-12
6712.1500	1.2039e-10	2.9748e-12
6713.4000	1.2111e-10	3.0284e-12
6714.6500	1.1692e-10	2.9661e-12
6715.9000	1.1020e-10	2.7861e-12
6717.1500	1.0657e-10	2.6452e-12
6718.4000	1.0339e-10	2.6815e-12
6719.6500	1.0451e-10	2.6094e-12
6720.9000	1.0942e-10	2.6527e-12
6722.1500	1.1094e-10	2.7521e-12
6723.4000	1.1106e-10	2.7784e-12
6724.6500	1.1166e-10	2.7781e-12
6725.9000	1.1145e-10	2.8107e-12
6727.1500	1.1094e-10	2.7904e-12
6728.4000	1.1249e-10	2.8192e-12
6729.6500	1.1439e-10	2.8147e-12
6730.9000	1.1471e-10	2.7807e-12
6732.1500	1.1491e-10	2.9012e-12
6733.4000	1.1504e-10	2.8880e-12
6734.6500	1.1525e-10	2.8573e-12
6735.9000	1.1577e-10	2.9247e-12
6737.1500	1.1645e-10	2.8713e-12
6738.4000	1.1624e-10	2.8728e-12
6739.6500	1.1354e-10	2.8419e-12
6740.9000	1.1266e-10	2.7736e-12
6742.1500	1.1534e-10	2.8696e-12
6743.4000	1.1340e-10	2.8850e-12
6744.6500	1.1213e-10	2.7174e-12
6745.9000	1.1517e-10	2.8026e-12
6747.1500	1.1440e-10	2.9564e-12
6748.4000	1.1029e-10	2.7645e-12
6749.6500	1.0767e-10	2.7059e-12
6750.9000	1.0851e-10	2.6206e-12
6752.1500	1.1061e-10	2.6868e-12
6753.4000	1.0713e-10	2.7721e-12
6754.6500	1.0651e-10	2.6236e-12
6755.9000	1.1248e-10	2.7335e-12
6757.1500	1.1559e-10	2.8205e-12
6758.4000	1.1757e-10	2.8172e-12
6759.6500	1.1833e-10	2.8654e-12
6760.9000	1.1864e-10	2.9554e-12
6762.1500	1.1849e-10	2.9717e-12
6763.4000	1.1728e-10	2.9325e-12
6764.6500	1.1838e-10	2.8043e-12
6765.9000	1.1894e-10	2.9569e-12
6767.1500	1.1510e-10	2.8987e-12
6768.4000	1.1356e-10	2.8382e-12
6769.6500	1.1773e-10	2.8017e-12
6770.9000	1.1879e-10	2.9508e-12
6772.1500	1.1696e-10	2.8975e-12
6773.4000	1.1932e-10	2.9441e-12
6774.6500	1.2288e-10	3.0096e-12
6775.9000	1.2450e-10	3.1186e-12
6777.1500	1.2550e-10	3.0852e-12
6778.4000	1.2546e-10	3.0763e-12
6779.6500	1.2573e-10	3.1289e-12
6780.9000	1.2607e-10	3.1058e-12
6782.1500	1.2154e-10	2.9983e-12
6783.4000	1.1376e-10	2.8049e-12
6784.6500	1.0854e-10	2.7537e-12
6785.9000	1.0712e-10	2.6690e-12
6787.1500	1.0958e-10	2.6376e-12
6788.4000	1.1367e-10	2.7872e-12
6789.6500	1.1535e-10	2.8438e-12
6790.9000	1.1443e-10	2.9007e-12
6792.1500	1.1504e-10	2.7801e-12
6793.4000	1.1606e-10	2.8864e-12
6794.6500	1.1498e-10	2.8846e-12
6795.9000	1.1602e-10	2.8827e-12
6797.1500	1.1780e-10	2.9195e-12
6798.4000	1.1870e-10	2.9865e-12
6799.6500	1.1871e-10	2.9828e-12
6800.9000	1.2038e-10	2.9285e-12
6802.1500	1.2245e-10	2.9951e-12
6803.4000	1.2279e-10	3.0493e-12
6804.6500	1.2205e-10	3.0166e-12
6805.9000	1.2157e-10	2.9542e-12
6807.1500	1.2111e-10	2.9492e-12
6808.4000	1.2116e-10	3.0146e-12
6809.6500	1.2363e-10	3.0920e-12
6810.9000	1.2368e-10	3.0597e-12
6812.1500	1.2335e-10	2.9819e-12
6813.4000	1.2335e-10	2.9290e-12
6814.6500	1.2218e-10	3.0443e-12
6815.9000	1.1794e-10	2.9246e-12
6817.1500	1.1743e-10	2.8412e-12
6818.4000	1.2212e-10	3.0435e-12
6819.6500	1.2349e-10	3.0881e-12
6820.9000	1.2192e-10	2.9629e-12
6822.1500	1.2251e-10	2.9655e-12
6823.4000	1.2480e-10	3.0357e-12
6824.6500	1.2551e-10	3.0542e-12
6825.9000	1.2590e-10	2.9711e-12
6827.1500	1.2690e-10	3.1349e-12
6828.4000	1.2521e-10	3.0703e-12
6829.6500	1.2291e-10	2.9589e-12
6830.9000	1.2399e-10	3.0131e-12
6832.1500	1.2553e-10	2.9955e-12
6833.4000	1.2389e-10	3.0261e-12
6834.6500	1.2484e-10	2.9915e-12
6835.9000	1.2887e-10	3.0865e-12
6837.1500	1.2990e-10	3.1763e-12
6838.4000	1.2946e-10	3.0761e-12
6839.6500	1.2803e-10	3.0979e-12
6840.9000	1.2525e-10	3.0506e-12
6842.1500	1.2236e-10	2.9661e-12
6843.4000	1.2298e-10	2.9101e-12
6844.6500	1.2722e-10	2.9835e-12
6845.9000	1.3041e-10	3.1604e-12
6847.1500	1.3025e-10	3.1201e-12
6848.4000	1.2984e-10	3.0930e-12
6849.6500	1.2885e-10	3.1356e-12
6850.9000	1.2487e-10	3.0842e-12
6852.1500	1.2309e-10	2.9748e-12
6853.4000	1.2354e-10	2.9979e-12
6854.6500	1.2364e-10	2.9948e-12
6855.9000	1.2184e-10	2.9243e-12
6857.1500	1.2182e-10	2.9697e-12
6858.4000	1.2401e-10	3.1256e-12
6859.6500	1.2530e-10	3.0822e-12
6860.9000	1.2408e-10	3.0713e-12
6862.1500	1.1947e-10	2.8952e-12
6863.4000	1.2008e-10	2.8398e-12
6864.6500	1.2667e-10	3.0782e-12
6865.9000	1.2833e-10	3.0899e-12
6867.1500	1.2893e-10	3.1524e-12
6868.4000	1.2408e-10	2.9160e-12
6869.6500	1.2479e-10	2.9522e-12
6870.9000	1.3034e-10	3.2831e-12
6872.1500	1.3048e-10	3.2459e-12
6873.4000	1.2579e-10	2.9191e-12
6874.6500	1.2937e-10	3.4426e-12
6875.9000	1.2764e-10	3.2015e-12
6877.1500	1.2829e-10	3.1667e-12
6878.4000	1.3092e-10	3.1697e-12
6879.6500	1.3286e-10	3.1902e-12
6880.9000	1.3323e-10	3.3340e-12
6882.1500	1.2884e-10	3.1158e-12
6883.4000	1.2648e-10	2.9649e-12
6884.6500	1.2683e-10	2.9156e-12
6885.9000	1.3065e-10	3.4151e-12
6887.1500	1.2904e-10	3.1624e-12
6888.4000	1.3155e-10	3.1857e-12
6889.6500	1.3471e-10	3.2950e-12
6890.9000	1.3469e-10	3.1477e-12
6892.1500	1.3622e-10	3.1908e-12
6893.4000	1.3571e-10	3.4665e-12
6894.6500	1.3592e-10	3.2024e-12
6895.9000	1.3759e-10	3.2063e-12
6897.1500	1.3433e-10	3.3674e-12
6898.4000	1.3420e-10	3.2098e-12
6899.6500	1.3507e-10	3.1744e-12
6900.9000	1.3431e-10	3.3054e-12
6902.1500	1.3460e-10	3.2923e-12
6903.4000	1.3643e-10	3.2251e-12
6904.6500	1.3760e-10	3.2520e-12
6905.9000	1.3603e-10	3.2728e-12
6907.1500	1.3604e-10	3.2628e-12
6908.4000	1.4092e-10	3.4348e-12
6909.6500	1.3948e-10	3.2734e-12
6910.9000	1.4081e-10	3.2578e-12
6912.1500	1.3908e-10	3.2699e-12
6913.4000	1.3596e-10	3.2957e-12
6914.6500	1.3301e-10	3.0977e-12
6915.9000	1.3392e-10	3.2046e-12
6917.1500	1.3567e-10	3.1619e-12
6918.4000	1.3552e-10	3.1820e-12
6919.6500	1.3576e-10	3.2354e-12
6920.9000	1.3621e-10	3.1559e-12
6922.1500	1.3740e-10	3.2474e-12
6923.4000	1.3738e-10	3.3582e-12
6924.6500	1.3314e-10	3.2264e-12
6925.9000	1.2948e-10	3.0309e-12
6927.1500	1.3035e-10	3.0226e-12
6928.4000	1.3533e-10	3.1473e-12
6929.6500	1.3849e-10	3.2510e-12
6930.9000	1.3903e-10	3.2813e-12
6932.1500	1.3860e-10	3.2954e-12
6933.4000	1.3648e-10	3.2398e-12
6934.6500	1.3427e-10	3.1482e-12
6935.9000	1.3675e-10	3.2079e-12
6937.1500	1.3846e-10	3.2772e-12
6938.4000	1.3777e-10	3.2247e-12
6939.6500	1.3792e-10	3.2144e-12
6940.9000	1.4023e-10	3.3142e-12
6942.1500	1.4283e-10	3.3010e-12
6943.4000	1.4198e-10	3.3332e-12
6944.6500	1.3925e-10	3.2610e-12
6945.9000	1.3511e-10	3.1225e-12
6947.1500	1.3635e-10	3.1647e-12
6948.4000	1.4187e-10	3.3071e-12
6949.6500	1.4388e-10	3.3265e-12
6950.9000	1.4292e-10	3.3139e-12
6952.1500	1.4008e-10	3.2718e-12
6953.4000	1.3831e-10	3.2208e-12
6954.6500	1.3655e-10	3.1355e-12
6955.9000	1.3730e-10	3.1243e-12
6957.1500	1.4118e-10	3.2296e-12
6958.4000	1.4344e-10	3.3433e-12
6959.6500	1.4313e-10	3.2604e-12
6960.9000	1.4417e-10	3.4452e-12
6962.1500	1.4526e-10	3.4595e-12
6963.4000	1.4551e-10	3.3660e-12
6964.6500	1.4552e-10	3.3054e-12
6965.9000	1.4469e-10	3.3513e-12
6967.1500	1.4372e-10	3.3302e-12
6968.4000	1.4599e-10	3.3990e-12
6969.6500	1.4782e-10	3.4032e-12
6970.9000	1.4629e-10	3.3584e-12
6972.1500	1.4439e-10	3.2553e-12
6973.4000	1.4452e-10	3.4096e-12
6974.6500	1.4574e-10	3.4435e-12
6975.9000	1.4519e-10	3.4145e-12
6977.1500	1.4299e-10	3.3360e-12
6978.4000	1.3751e-10	3.2291e-12
6979.6500	1.2965e-10	2.9192e-12
6980.9000	1.3227e-10	3.0853e-12
6982.1500	1.4140e-10	3.3621e-12
6983.4000	1.4561e-10	3.3146e-12
6984.6500	1.4685e-10	3.3431e-12
6985.9000	1.4836e-10	3.3431e-12
6987.1500	1.4911e-10	3.4444e-12
6988.4000	1.4695e-10	3.4192e-12
6989.6500	1.4253e-10	3.3075e-12
6990.9000	1.3969e-10	3.2462e-12
6992.1500	1.4090e-10	3.2006e-12
6993.4000	1.4489e-10	3.2834e-12
6994.6500	1.4539e-10	3.3345e-12
6995.9000	1.4438e-10	3.3609e-12
6997.1500	1.4336e-10	3.2647e-12
6998.4000	1.4357e-10	3.2916e-12
6999.6500	1.4373e-10	3.3473e-12
7000.9000	1.4154e-10	3.2465e-12
7002.1500	1.4184e-10	3.1471e-12
7003.4000	1.4464e-10	3.2419e-12
7004.6500	1.4405e-10	3.2460e-12
7005.9000	1.4165e-10	3.1143e-12
7007.1500	1.4342e-10	3.2808e-12
7008.4000	1.4385e-10	3.2563e-12
7009.6500	1.4405e-10	3.1731e-12
7010.9000	1.4575e-10	3.2206e-12
7012.1500	1.4469e-10	3.3101e-12
7013.4000	1.4675e-10	3.2766e-12
7014.6500	1.4792e-10	3.3462e-12
7015.9000	1.4124e-10	3.2754e-12
7017.1500	1.3240e-10	2.9569e-12
7018.4000	1.3712e-10	3.0493e-12
7019.6500	1.4765e-10	3.3990e-12
7020.9000	1.4975e-10	3.3748e-12
7022.1500	1.4917e-10	3.3209e-12
7023.4000	1.4618e-10	3.2850e-12
7024.6500	1.4219e-10	3.2030e-12
7025.9000	1.4251e-10	3.2241e-12
7027.1500	1.4514e-10	3.2839e-12
7028.4000	1.4474e-10	3.3484e-12
7029.6500	1.4443e-10	3.2016e-12
7030.9000	1.4672e-10	3.2647e-12
7032.1500	1.4875e-10	3.3562e-12
7033.4000	1.4801e-10	3.3683e-12
7034.6500	1.4621e-10	3.2873e-12
7035.9000	1.4679e-10	3.3564e-12
7037.1500	1.4780e-10	3.3399e-12
7038.4000	1.4363e-10	3.2479e-12
7039.6500	1.3793e-10	3.0311e-12
7040.9000	1.4369e-10	3.2072e-12
7042.1500	1.5204e-10	3.5494e-12
7043.4000	1.5367e-10	3.4449e-12
7044.6500	1.5324e-10	3.4675e-12
7045.9000	1.5149e-10	3.3695e-12
7047.1500	1.5154e-10	3.3994e-12
7048.4000	1.5367e-10	3.3423e-12
7049.6500	1.5460e-10	3.4363e-12
7050.9000	1.5229e-10	3.3801e-12
7052.1500	1.4882e-10	3.3339e-12
7053.4000	1.4174e-10	3.1218e-12
7054.6500	1.2765e-10	2.8279e-12
7055.9000	1.1509e-10	2.4933e-12
7057.1500	1.1846e-10	2.6508e-12
7058.4000	1.2915e-10	2.9274e-12
7059.6500	1.3057e-10	2.9536e-12
7060.9000	1.2474e-10	2.7899e-12
7062.1500	1.2129e-10	2.7192e-12
7063.4000	1.2179e-10	2.7150e-12
7064.6500	1.2318e-10	2.7816e-12
7065.9000	1.2214e-10	2.7117e-12
7067.1500	1.2005e-10	2.7442e-12
7068.4000	1.2131e-10	2.7075e-12
7069.6500	1.2193e-10	2.6756e-12
7070.9000	1.2510e-10	2.7800e-12
7072.1500	1.3059e-10	2.8990e-12
7073.4000	1.3312e-10	2.9514e-12
7074.6500	1.3348e-10	2.9268e-12
7075.9000	1.3324e-10	2.8934e-12
7077.1500	1.3302e-10	2.9708e-12
7078.4000	1.3323e-10	2.9967e-12
7079.6500	1.3433e-10	2.9369e-12
7080.9000	1.3601e-10	3.0241e-12
7082.1500	1.3726e-10	3.1190e-12
7083.4000	1.3509e-10	2.9859e-12
7084.6500	1.2793e-10	2.8109e-12
7085.9000	1.2186e-10	2.6129e-12
7087.1500	1.2238e-10	2.7813e-12
7088.4000	1.1213e-10	2.4946e-12
7089.6500	1.0183e-10	2.2503e-12
7090.9000	1.0672e-10	2.3432e-12
7092.1500	1.1435e-10	2.5112e-12
7093.4000	1.1643e-10	2.5257e-12
7094.6500	1.1358e-10	2.5167e-12
7095.9000	1.1181e-10	2.4625e-12
7097.1500	1.1172e-10	2.5240e-12
7098.4000	1.1239e-10	2.4695e-12
7099.6500	1.1474e-10	2.5178e-12
7100.9000	1.1739e-10	2.6720e-12
7102.1500	1.1644e-10	2.5839e-12
7103.4000	1.1285e-10	2.4436e-12
7104.6500	1.1147e-10	2.3836e-12
7105.9000	1.1688e-10	2.5675e-12
7107.1500	1.2101e-10	2.7122e-12
7108.4000	1.2180e-10	2.6265e-12
7109.6500	1.2250e-10	2.6802e-12
7110.9000	1.1994e-10	2.6534e-12
7112.1500	1.1456e-10	2.5048e-12
7113.4000	1.1578e-10	2.5226e-12
7114.6500	1.2072e-10	2.7117e-12
7115.9000	1.2141e-10	2.5512e-12
7117.1500	1.2367e-10	2.6468e-12
7118.4000	1.2670e-10	2.7043e-12
7119.6500	1.2695e-10	2.7544e-12
7120.9000	1.2764e-10	2.7403e-12
7122.1500	1.2747e-10	2.7597e-12
7123.4000	1.2587e-10	2.6865e-12
7124.6500	1.2490e-10	2.7062e-12
7125.9000	1.1243e-10	2.5031e-12
7127.1500	9.5261e-11	2.0091e-12
7128.4000	9.5945e-11	2.0486e-12
7129.6500	1.0310e-10	2.2110e-12
7130.9000	1.0243e-10	2.2308e-12
7132.1500	9.8469e-11	2.1818e-12
7133.4000	9.8469e-11	2.1827e-12
7134.6500	1.0174e-10	2.2072e-12
7135.9000	1.0378e-10	2.2178e-12
7137.1500	1.0449e-10	2.3277e-12
7138.4000	1.0404e-10	2.3025e-12
7139.6500	1.0140e-10	2.1716e-12
7140.9000	1.0308e-10	2.1979e-12
7142.1500	1.0781e-10	2.3972e-12
7143.4000	1.0953e-10	2.2763e-12
7144.6500	1.1042e-10	2.4339e-12
7145.9000	1.1070e-10	2.3797e-12
7147.1500	1.1139e-10	2.3581e-12
7148.4000	1.1040e-10	2.3485e-12
7149.6500	1.0877e-10	2.3821e-12
7150.9000	1.1090e-10	2.3596e-12
7152.1500	1.1187e-10	2.4209e-12
7153.4000	1.1374e-10	2.3830e-12
7154.6500	1.1679e-10	2.4891e-12
7155.9000	1.1649e-10	2.4478e-12
7157.1500	1.1791e-10	2.4976e-12
7158.4000	1.1962e-10	2.6195e-12
7159.6500	1.1428e-10	2.4642e-12
7160.9000	1.1001e-10	2.2893e-12
7162.1500	1.1334e-10	2.4852e-12
7163.4000	1.1723e-10	2.4888e-12
7164.6500	1.1562e-10	2.4437e-12
7165.9000	1.1168e-10	2.3666e-12
7167.1500	1.1330e-10	2.4239e-12
7168.4000	1.1714e-10	2.6179e-12
7169.6500	1.1551e-10	2.4817e-12
7170.9000	1.1493e-10	2.4870e-12
7172.1500	1.1888e-10	2.5424e-12
7173.4000	1.2029e-10	2.4916e-12
7174.6500	1.2033e-10	2.5776e-12
7175.9000	1.1914e-10	2.4402e-12
7177.1500	1.1891e-10	2.5072e-12
7178.4000	1.2025e-10	2.5669e-12
7179.6500	1.2218e-10	2.5748e-12
7180.9000	1.1998e-10	2.5388e-12
7182.1500	1.1794e-10	2.4888e-12
7183.4000	1.2118e-10	2.4599e-12
7184.6500	1.2320e-10	2.5635e-12
7185.9000	1.2485e-10	2.5382e-12
7187.1500	1.2190e-10	2.5767e-12
7188.4000	1.1736e-10	2.4819e-12
7189.6500	1.1240e-10	2.2765e-12
7190.9000	1.1499e-10	2.3689e-12
7192.1500	1.2076e-10	2.4600e-12
7193.4000	1.2405e-10	2.5192e-12
7194.6500	1.2438e-10	2.6692e-12
7195.9000	1.2526e-10	2.6646e-12
7197.1500	1.2219e-10	2.6155e-12
7198.4000	1.1560e-10	2.3348e-12
7199.6500	1.1504e-10	2.2822e-12
7200.9000	1.2078e-10	2.5395e-12
7202.1500	1.2073e-10	2.5832e-12
7203.4000	1.1763e-10	2.3997e-12
7204.6500	1.1951e-10	2.5330e-12
7205.9000	1.2536e-10	2.6475e-12
7207.1500	1.2213e-10	2.5688e-12
7208.4000	1.1558e-10	2.3861e-12
7209.6500	1.1326e-10	2.3357e-12
7210.9000	1.1686e-10	2.4479e-12
7212.1500	1.2352e-10	2.6003e-12
7213.4000	1.2514e-10	2.6569e-12
7214.6500	1.2258e-10	2.5088e-12
7215.9000	1.2244e-10	2.5866e-12
7217.1500	1.2126e-10	2.5006e-12
7218.4000	1.2464e-10	2.5956e-12
7219.6500	1.2995e-10	2.7568e-12
7220.9000	1.2919e-10	2.6405e-12
7222.1500	1.2841e-10	2.6115e-12
7223.4000	1.2864e-10	2.6665e-12
7224.6500	1.2798e-10	2.6314e-12
7225.9000	1.3077e-10	2.7787e-12
7227.1500	1.3383e-10	2.7696e-12
7228.4000	1.3360e-10	2.8074e-12
7229.6500	1.3123e-10	2.7198e-12
7230.9000	1.3079e-10	2.6622e-12
7232.1500	1.3257e-10	2.7674e-12
7233.4000	1.3029e-10	2.6873e-12
7234.6500	1.3164e-10	2.6270e-12
7235.9000	1.3427e-10	2.7763e-12
7237.1500	1.3226e-10	2.7297e-12
7238.4000	1.3191e-10	2.7044e-12
7239.6500	1.3392e-10	2.6585e-12
7240.9000	1.3120e-10	2.6230e-12
7242.1500	1.3137e-10	2.6804e-12
7243.4000	1.3383e-10	2.7126e-12
7244.6500	1.3086e-10	2.6587e-12
7245.9000	1.2666e-10	2.5810e-12
7247.1500	1.3236e-10	2.7220e-12
7248.4000	1.3947e-10	2.8983e-12
7249.6500	1.4167e-10	2.9472e-12
7250.9000	1.3856e-10	2.8468e-12
7252.1500	1.3121e-10	2.5503e-12
7253.4000	1.2898e-10	2.6097e-12
7254.6500	1.3247e-10	2.7273e-12
7255.9000	1.3495e-10	2.7799e-12
7257.1500	1.3960e-10	2.8754e-12
7258.4000	1.4133e-10	2.8934e-12
7259.6500	1.4173e-10	2.8772e-12
7260.9000	1.3916e-10	2.8490e-12
7262.1500	1.3195e-10	2.6097e-12
7263.4000	1.3191e-10	2.6444e-12
7264.6500	1.3858e-10	2.8910e-12
7265.9000	1.3980e-10	2.8328e-12
7267.1500	1.3963e-10	2.9022e-12
7268.4000	1.4108e-10	2.9478e-12
7269.6500	1.4398e-10	3.0093e-12
7270.9000	1.4188e-10	2.8827e-12
7272.1500	1.3721e-10	2.7602e-12
7273.4000	1.3580e-10	2.7567e-12
7274.6500	1.3964e-10	2.8520e-12
7275.9000	1.3973e-10	2.7373e-12
7277.1500	1.4346e-10	2.9446e-12
7278.4000	1.4409e-10	2.9376e-12
7279.6500	1.4344e-10	2.9705e-12
7280.9000	1.4325e-10	2.9695e-12
7282.1500	1.3921e-10	2.8373e-12
7283.4000	1.3685e-10	2.7645e-12
7284.6500	1.3986e-10	2.8831e-12
7285.9000	1.4004e-10	2.8542e-12
7287.1500	1.4325e-10	2.9078e-12
7288.4000	1.4454e-10	2.8390e-12
7289.6500	1.4046e-10	2.7165e-12
7290.9000	1.3754e-10	2.7528e-12
7292.1500	1.3426e-10	2.6186e-12
7293.4000	1.3266e-10	2.6726e-12
7294.6500	1.3943e-10	2.8457e-12
7295.9000	1.4524e-10	2.9537e-12
7297.1500	1.4933e-10	3.0292e-12
7298.4000	1.4966e-10	3.0063e-12
7299.6500	1.4565e-10	2.9038e-12
7300.9000	1.4123e-10	2.8398e-12
7302.1500	1.4338e-10	2.8343e-12
7303.4000	1.4635e-10	2.9377e-12
7304.6500	1.4660e-10	2.9169e-12
7305.9000	1.4747e-10	2.9224e-12
7307.1500	1.4473e-10	2.9204e-12
7308.4000	1.4283e-10	2.8656e-12
7309.6500	1.4531e-10	2.9600e-12
7310.9000	1.4724e-10	2.9671e-12
7312.1500	1.4430e-10	2.8783e-12
7313.4000	1.4570e-10	2.8885e-12
7314.6500	1.4988e-10	3.0439e-12
7315.9000	1.4703e-10	2.9841e-12
7317.1500	1.4192e-10	2.9063e-12
7318.4000	1.4108e-10	2.8028e-12
7319.6500	1.4341e-10	2.8609e-12
7320.9000	1.4746e-10	3.0211e-12
7322.1500	1.4920e-10	3.0384e-12
7323.4000	1.4816e-10	3.0465e-12
7324.6500	1.4421e-10	2.8448e-12
7325.9000	1.4192e-10	2.8031e-12
7327.1500	1.4058e-10	2.8317e-12
7328.4000	1.4504e-10	2.8537e-12
7329.6500	1.5193e-10	3.0894e-12
7330.9000	1.4989e-10	2.9855e-12
7332.1500	1.4551e-10	2.8622e-12
7333.4000	1.4490e-10	2.8485e-12
7334.6500	1.4861e-10	2.9335e-12
7335.9000	1.5051e-10	2.9828e-12
7337.1500	1.5107e-10	3.0886e-12
7338.4000	1.5147e-10	3.0615e-12
7339.6500	1.5086e-10	3.0094e-12
7340.9000	1.5323e-10	3.0925e-12
7342.1500	1.5600e-10	3.1667e-12
7343.4000	1.5483e-10	3.1138e-12
7344.6500	1.4633e-10	2.9101e-12
7345.9000	1.4021e-10	2.7586e-12
7347.1500	1.4720e-10	2.9165e-12
7348.4000	1.5332e-10	3.0936e-12
7349.6500	1.5440e-10	2.9845e-12
7350.9000	1.5354e-10	2.9781e-12
7352.1500	1.4930e-10	2.9499e-12
7353.4000	1.4776e-10	2.9471e-12
7354.6500	1.4880e-10	2.9994e-12
7355.9000	1.4419e-10	2.8068e-12
7357.1500	1.3664e-10	2.7115e-12
7358.4000	1.3552e-10	2.7027e-12
7359.6500	1.4486e-10	2.8643e-12
7360.9000	1.5271e-10	3.0082e-12
7362.1500	1.4790e-10	2.8900e-12
7363.4000	1.4190e-10	2.8011e-12
7364.6500	1.4025e-10	2.7471e-12
7365.9000	1.4428e-10	2.7817e-12
7367.1500	1.4767e-10	2.9267e-12
7368.4000	1.5017e-10	2.8703e-12
7369.6500	1.5486e-10	2.9542e-12
7370.9000	1.5469e-10	3.0061e-12
7372.1500	1.5569e-10	3.0088e-12
7373.4000	1.5724e-10	3.0842e-12
7374.6500	1.5677e-10	3.1151e-12
7375.9000	1.5631e-10	3.0626e-12
7377.1500	1.5615e-10	3.0155e-12
7378.4000	1.5677e-10	3.0873e-12
7379.6500	1.5857e-10	3.1279e-12
7380.9000	1.5928e-10	3.1269e-12
7382.1500	1.5651e-10	3.0402e-12
7383.4000	1.5254e-10	3.0037e-12
7384.6500	1.5284e-10	2.9812e-12
7385.9000	1.5174e-10	2.9798e-12
7387.1500	1.4783e-10	2.8408e-12
7388.4000	1.4826e-10	2.8576e-12
7389.6500	1.4698e-10	2.8374e-12
7390.9000	1.4558e-10	2.7951e-12
7392.1500	1.4887e-10	2.8248e-12
7393.4000	1.5170e-10	2.9233e-12
7394.6500	1.5130e-10	2.8602e-12
7395.9000	1.5392e-10	2.9042e-12
7397.1500	1.5729e-10	3.0881e-12
7398.4000	1.5743e-10	3.0505e-12
7399.6500	1.5520e-10	3.0262e-12
7400.9000	1.4815e-10	2.8306e-12
7402.1500	1.4606e-10	2.7749e-12
7403.4000	1.5269e-10	2.9169e-12
7404.6500	1.5810e-10	3.0784e-12
7405.9000	1.5826e-10	3.0621e-12
7407.1500	1.5651e-10	3.0102e-12
7408.4000	1.5698e-10	3.0563e-12
7409.6500	1.5356e-10	3.0558e-12
7410.9000	1.5014e-10	2.9109e-12
7412.1500	1.5075e-10	2.8806e-12
7413.4000	1.5301e-10	3.0115e-12
7414.6500	1.5155e-10	2.9388e-12
7415.9000	1.4688e-10	2.8714e-12
7417.1500	1.4596e-10	2.8139e-12
7418.4000	1.4523e-10	2.7941e-12
7419.6500	1.4798e-10	2.8165e-12
7420.9000	1.5432e-10	2.9186e-12
7422.1500	1.5394e-10	2.9401e-12
7423.4000	1.4628e-10	2.8661e-12
7424.6500	1.4302e-10	2.7845e-12
7425.9000	1.4868e-10	2.8185e-12
7427.1500	1.5563e-10	3.0699e-12
7428.4000	1.5914e-10	3.0995e-12
7429.6500	1.5961e-10	2.9757e-12
7430.9000	1.5600e-10	2.9965e-12
7432.1500	1.5041e-10	2.9362e-12
7433.4000	1.4849e-10	2.9293e-12
7434.6500	1.5228e-10	2.9175e-12
7435.9000	1.5740e-10	3.0201e-12
7437.1500	1.5856e-10	3.0194e-12
7438.4000	1.5811e-10	3.0723e-12
7439.6500	1.5625e-10	3.0117e-12
7440.9000	1.4897e-10	2.8837e-12
7442.1500	1.4702e-10	2.7271e-12
7443.4000	1.5253e-10	2.8696e-12
7444.6500	1.5602e-10	2.9388e-12
7445.9000	1.5417e-10	2.9436e-12
7447.1500	1.5089e-10	2.8839e-12
7448.4000	1.5314e-10	2.8668e-12
7449.6500	1.5653e-10	2.9150e-12
7450.9000	1.5773e-10	3.0243e-12
7452.1500	1.5807e-10	3.0056e-12
7453.4000	1.5854e-10	3.0072e-12
7454.6500	1.5874e-10	3.0781e-12
7455.9000	1.5787e-10	2.9813e-12
7457.1500	1.5417e-10	2.8927e-12
7458.4000	1.5368e-10	2.8862e-12
7459.6500	1.5783e-10	2.9476e-12
7460.9000	1.5811e-10	2.9234e-12
7462.1500	1.5055e-10	2.9169e-12
7463.4000	1.4467e-10	2.7690e-12
7464.6500	1.5044e-10	2.8283e-12
7465.9000	1.5737e-10	3.0098e-12
7467.1500	1.5913e-10	2.9526e-12
7468.4000	1.5938e-10	2.9774e-12
7469.6500	1.5756e-10	2.9480e-12
7470.9000	1.5203e-10	2.8209e-12
7472.1500	1.4996e-10	2.8222e-12
7473.4000	1.5354e-10	2.9295e-12
7474.6500	1.5506e-10	2.9260e-12
7475.9000	1.5292e-10	2.8292e-12
7477.1500	1.5366e-10	2.9369e-12
7478.4000	1.5669e-10	2.9328e-12
7479.6500	1.5824e-10	2.9161e-12
7480.9000	1.5874e-10	2.9856e-12
7482.1500	1.5662e-10	2.9675e-12
7483.4000	1.5355e-10	2.8739e-12
7484.6500	1.5379e-10	2.9207e-12
7485.9000	1.5657e-10	2.8571e-12
7487.1500	1.5865e-10	2.9819e-12
7488.4000	1.5921e-10	2.9477e-12
7489.6500	1.5639e-10	3.0131e-12
7490.9000	1.5184e-10	2.8134e-12
7492.1500	1.4888e-10	2.7922e-12
7493.4000	1.5146e-10	2.9160e-12
7494.6500	1.5253e-10	2.8312e-12
7495.9000	1.4511e-10	2.7330e-12
7497.1500	1.4656e-10	2.7560e-12
7498.4000	1.5505e-10	2.8776e-12
7499.6500	1.5729e-10	2.9014e-12
7500.9000	1.5778e-10	2.9285e-12
7502.1500	1.5882e-10	2.9417e-12
7503.4000	1.5910e-10	3.0043e-12
7504.6500	1.5917e-10	2.9191e-12
7505.9000	1.5796e-10	2.9178e-12
7507.1500	1.5562e-10	2.8451e-12
7508.4000	1.5494e-10	2.8846e-12
7509.6500	1.5748e-10	2.8561e-12
7510.9000	1.5499e-10	2.7497e-12
7512.1500	1.4992e-10	2.7203e-12
7513.4000	1.5380e-10	2.8723e-12
7514.6500	1.5838e-10	2.9356e-12
7515.9000	1.5906e-10	2.9681e-12
7517.1500	1.5969e-10	2.9587e-12
7518.4000	1.6039e-10	2.9930e-12
7519.6500	1.6073e-10	2.9388e-12
7520.9000	1.6063e-10	2.9320e-12
7522.1500	1.5931e-10	2.9309e-12
7523.4000	1.5459e-10	2.8091e-12
7524.6500	1.5311e-10	2.8381e-12
7525.9000	1.5417e-10	2.7956e-12
7527.1500	1.5530e-10	2.8084e-12
7528.4000	1.5792e-10	2.8456e-12
7529.6500	1.5924e-10	2.8840e-12
7530.9000	1.5801e-10	2.9322e-12
7532.1500	1.5483e-10	2.7838e-12
7533.4000	1.5610e-10	2.8703e-12
7534.6500	1.5908e-10	2.9617e-12
7535.9000	1.6046e-10	2.9241e-12
7537.1500	1.6126e-10	2.8933e-12
7538.4000	1.6084e-10	2.9456e-12
7539.6500	1.5982e-10	2.9969e-12
7540.9000	1.5741e-10	2.8833e-12
7542.1500	1.5623e-10	2.8148e-12
7543.4000	1.5836e-10	2.8779e-12
7544.6500	1.6001e-10	2.8886e-12
7545.9000	1.5879e-10	2.9136e-12
7547.1500	1.5557e-10	2.8009e-12
7548.4000	1.5565e-10	2.8478e-12
7549.6500	1.5859e-10	2.8845e-12
7550.9000	1.6003e-10	2.8846e-12
7552.1500	1.5980e-10	2.9094e-12
7553.4000	1.5906e-10	2.9308e-12
7554.6500	1.5662e-10	2.8155e-12
7555.9000	1.5233e-10	2.7163e-12
7557.1500	1.5347e-10	2.7911e-12
7558.4000	1.5841e-10	2.8927e-12
7559.6500	1.5894e-10	2.9284e-12
7560.9000	1.5744e-10	2.8748e-12
7562.1500	1.5789e-10	2.9263e-12
7563.4000	1.5844e-10	2.8496e-12
7564.6500	1.5856e-10	2.8299e-12
7565.9000	1.5903e-10	2.8893e-12
7567.1500	1.5931e-10	2.8822e-12
7568.4000	1.5894e-10	2.8833e-12
7569.6500	1.5540e-10	2.7720e-12
7570.9000	1.5569e-10	2.7999e-12
7572.1500	1.5957e-10	2.8578e-12
7573.4000	1.6004e-10	2.8649e-12
7574.6500	1.5615e-10	2.8130e-12
7575.9000	1.5566e-10	2.7252e-12
7577.1500	1.5934e-10	2.8794e-12
7578.4000	1.6017e-10	2.8919e-12
7579.6500	1.5913e-10	2.9528e-12
7580.9000	1.5746e-10	2.7775e-12
7582.1500	1.5745e-10	2.8362e-12
7583.4000	1.5680e-10	2.8241e-12
7584.6500	1.5229e-10	2.6805e-12
7585.9000	1.5114e-10	2.6299e-12
7587.1500	1.5126e-10	2.7097e-12
7588.4000	1.5310e-10	2.7333e-12
7589.6500	1.5226e-10	2.7255e-12
7590.9000	1.4696e-10	2.5892e-12
7592.1500	1.4534e-10	2.5930e-12
7593.4000	1.5018e-10	3.1157e-12
7594.6500	1.4573e-10	2.5736e-12
7595.9000	1.4301e-10	2.7389e-12
7597.1500	1.4861e-10	2.5314e-12
7598.4000	1.6306e-10	2.9828e-12
7599.6500	1.7143e-10	4.2956e-12
7600.9000	1.3730e-10	2.9924e-12
7602.1500	1.3613e-10	2.5652e-12
7603.4000	1.6928e-10	4.6314e-12
7604.6500	1.5519e-10	3.0006e-12
7605.9000	1.4498e-10	3.0732e-12
7607.1500	1.4324e-10	2.6962e-12
7608.4000	1.4159e-10	2.3537e-12
7609.6500	1.4677e-10	3.3710e-12
7610.9000	1.4154e-10	3.4641e-12
7612.1500	1.4496e-10	2.8300e-12
7613.4000	1.3914e-10	2.7575e-12
7614.6500	1.4657e-10	2.6662e-12
7615.9000	1.5128e-10	2.8906e-12
7617.1500	1.4915e-10	2.7367e-12
7618.4000	1.4387e-10	2.6572e-12
7619.6500	1.3986e-10	2.5021e-12
7620.9000	1.5126e-10	2.8517e-12
7622.1500	1.5257e-10	3.4930e-12
7623.4000	1.4506e-10	2.4307e-12
7624.6500	1.5341e-10	2.8249e-12
7625.9000	1.5693e-10	3.4237e-12
7627.1500	1.4706e-10	2.6255e-12
7628.4000	1.4472e-10	2.6809e-12
7629.6500	1.3906e-10	2.6997e-12
7630.9000	1.3878e-10	2.4940e-12
7632.1500	1.5258e-10	3.0490e-12
7633.4000	1.4984e-10	2.6578e-12
7634.6500	1.4799e-10	2.6291e-12
7635.9000	1.5253e-10	2.8046e-12
7637.1500	1.5182e-10	3.0964e-12
7638.4000	1.5002e-10	3.5563e-12
7639.6500	1.4257e-10	2.4729e-12
7640.9000	1.4357e-10	2.7253e-12
7642.1500	1.5242e-10	2.8374e-12
7643.4000	1.5523e-10	3.0375e-12
7644.6500	1.4783e-10	2.5642e-12
7645.9000	1.4702e-10	2.6029e-12
7647.1500	1.4987e-10	2.6422e-12
7648.4000	1.4999e-10	2.7039e-12
7649.6500	1.5113e-10	2.6791e-12
7650.9000	1.4997e-10	2.5994e-12
7652.1500	1.4778e-10	2.6668e-12
7653.4000	1.4786e-10	2.7427e-12
7654.6500	1.4342e-10	2.5518e-12
7655.9000	1.4276e-10	2.4399e-12
7657.1500	1.5142e-10	2.7196e-12
7658.4000	1.5315e-10	2.8421e-12
7659.6500	1.3959e-10	2.3006e-12
7660.9000	1.3714e-10	2.2772e-12
7662.1500	1.4367e-10	2.5559e-12
7663.4000	1.4286e-10	2.5907e-12
7664.6500	1.3414e-10	2.4698e-12
7665.9000	1.2481e-10	2.0290e-12
7667.1500	1.3505e-10	2.2602e-12
7668.4000	1.4684e-10	2.7260e-12
7669.6500	1.4836e-10	2.6889e-12
7670.9000	1.4541e-10	2.4077e-12
7672.1500	1.4330e-10	2.5410e-12
7673.4000	1.4144e-10	2.4990e-12
7674.6500	1.4216e-10	2.4679e-12
7675.9000	1.4455e-10	2.4881e-12
7677.1500	1.4568e-10	2.5580e-12
7678.4000	1.4712e-10	2.5450e-12
7679.6500	1.4699e-10	2.6118e-12
7680.9000	1.4392e-10	2.4853e-12
7682.1500	1.4356e-10	2.5230e-12
7683.4000	1.4604e-10	2.6061e-12
7684.6500	1.4669e-10	2.4921e-12
7685.9000	1.4679e-10	2.5246e-12
7687.1500	1.4750e-10	2.5390e-12
7688.4000	1.4702e-10	2.5845e-12
7689.6500	1.4567e-10	2.5126e-12
7690.9000	1.4552e-10	2.6637e-12
7692.1500	1.4394e-10	2.5547e-12
7693.4000	1.4393e-10	2.4959e-12
7694.6500	1.4726e-10	2.5883e-12
7695.9000	1.4760e-10	2.6119e-12
7697.1500	1.4693e-10	2.5701e-12
7698.4000	1.4547e-10	2.6455e-12
7699.6500	1.3555e-10	2.3792e-12
7700.9000	1.3531e-10	2.2252e-12
7702.1500	1.4609e-10	2.5682e-12
7703.4000	1.4865e-10	2.6221e-12
7704.6500	1.4856e-10	2.6402e-12
7705.9000	1.4540e-10	2.5426e-12
7707.1500	1.4312e-10	2.4808e-12
7708.4000	1.4430e-10	2.5921e-12
7709.6500	1.4463e-10	2.4769e-12
7710.9000	1.4275e-10	2.4098e-12
7712.1500	1.4182e-10	2.4737e-12
7713.4000	1.4074e-10	2.4860e-12
7714.6500	1.3535e-10	2.3944e-12
7715.9000	1.3257e-10	2.2610e-12
7717.1500	1.3886e-10	2.3605e-12
7718.4000	1.4545e-10	2.5744e-12
7719.6500	1.4615e-10	2.4700e-12
7720.9000	1.4638e-10	2.5670e-12
7722.1500	1.4727e-10	2.5600e-12
7723.4000	1.4273e-10	2.5808e-12
7724.6500	1.3962e-10	2.4936e-12
7725.9000	1.4355e-10	2.5167e-12
7727.1500	1.4584e-10	2.5450e-12
7728.4000	1.4384e-10	2.4538e-12
7729.6500	1.4517e-10	2.4465e-12
7730.9000	1.4879e-10	2.6156e-12
7732.1500	1.4943e-10	2.5367e-12
7733.4000	1.4956e-10	2.5849e-12
7734.6500	1.4896e-10	2.4959e-12
7735.9000	1.4939e-10	2.5160e-12
7737.1500	1.5042e-10	2.5110e-12
7738.4000	1.5027e-10	2.5812e-12
7739.6500	1.4932e-10	2.6348e-12
7740.9000	1.4943e-10	2.5959e-12
7742.1500	1.4984e-10	2.5681e-12
7743.4000	1.4737e-10	2.5886e-12
7744.6500	1.4497e-10	2.5499e-12
7745.9000	1.4532e-10	2.5452e-12
7747.1500	1.4543e-10	2.5764e-12
7748.4000	1.4156e-10	2.5369e-12
7749.6500	1.3294e-10	2.2606e-12
7750.9000	1.3249e-10	2.2908e-12
7752.1500	1.3824e-10	2.4195e-12
7753.4000	1.4248e-10	2.4000e-12
7754.6500	1.4498e-10	2.4829e-12
7755.9000	1.4594e-10	2.4873e-12
7757.1500	1.4675e-10	2.6115e-12
7758.4000	1.4623e-10	2.4186e-12
7759.6500	1.4504e-10	2.4996e-12
7760.9000	1.4438e-10	2.5089e-12
7762.1500	1.4572e-10	2.5382e-12
7763.4000	1.4693e-10	2.5445e-12
7764.6500	1.4676e-10	2.5567e-12
7765.9000	1.4636e-10	2.5576e-12
7767.1500	1.4492e-10	2.5171e-12
7768.4000	1.4242e-10	2.4254e-12
7769.6500	1.4382e-10	2.4850e-12
7770.9000	1.4701e-10	2.5753e-12
7772.1500	1.4719e-10	2.4528e-12
7773.4000	1.4654e-10	2.4968e-12
7774.6500	1.4633e-10	2.5353e-12
7775.9000	1.4743e-10	2.5958e-12
7777.1500	1.4876e-10	2.6343e-12
7778.4000	1.4898e-10	2.5821e-12
7779.6500	1.4870e-10	2.6773e-12
7780.9000	1.4545e-10	2.6076e-12
7782.1500	1.4283e-10	2.4956e-12
7783.4000	1.4484e-10	2.5428e-12
7784.6500	1.4524e-10	2.5242e-12
7785.9000	1.4566e-10	2.5336e-12
7787.1500	1.4661e-10	2.5109e-12
7788.4000	1.4564e-10	2.5426e-12
7789.6500	1.4006e-10	2.4722e-12
7790.9000	1.3877e-10	2.4053e-12
7792.1500	1.4317e-10	2.5257e-12
7793.4000	1.4608e-10	2.5647e-12
7794.6500	1.4827e-10	2.5226e-12
7795.9000	1.4867e-10	2.5675e-12
7797.1500	1.4778e-10	2.5801e-12
7798.4000	1.4530e-10	2.4656e-12
7799.6500	1.4497e-10	2.4951e-12
7800.9000	1.4397e-10	2.4850e-12
7802.1500	1.4452e-10	2.4969e-12
7803.4000	1.4844e-10	2.5335e-12
7804.6500	1.4981e-10	2.6316e-12
7805.9000	1.5044e-10	2.5872e-12
7807.1500	1.5040e-10	2.5577e-12
7808.4000	1.4776e-10	2.5696e-12
7809.6500	1.4666e-10	2.4716e-12
7810.9000	1.4775e-10	2.6308e-12
7812.1500	1.4642e-10	2.5085e-12
7813.4000	1.4857e-10	2.5820e-12
7814.6500	1.5148e-10	2.6864e-12
7815.9000	1.5182e-10	2.6522e-12
7817.1500	1.5167e-10	2.5979e-12
7818.4000	1.5153e-10	2.5575e-12
7819.6500	1.5145e-10	2.6044e-12
7820.9000	1.4987e-10	2.5974e-12
7822.1500	1.4874e-10	2.5821e-12
7823.4000	1.4961e-10	2.5248e-12
7824.6500	1.5061e-10	2.6059e-12
7825.9000	1.5140e-10	2.5605e-12
7827.1500	1.5056e-10	2.6058e-12
7828.4000	1.4834e-10	2.5642e-12
7829.6500	1.4672e-10	2.5172e-12
7830.9000	1.4704e-10	2.5544e-12
7832.1500	1.4525e-10	2.5910e-12
7833.4000	1.4187e-10	2.5392e-12
7834.6500	1.4247e-10	2.5409e-12
7835.9000	1.4009e-10	2.4720e-12
7837.1500	1.3833e-10	2.3989e-12
7838.4000	1.4357e-10	2.4723e-12
7839.6500	1.4784e-10	2.6386e-12
7840.9000	1.4580e-10	2.5937e-12
7842.1500	1.4393e-10	2.4270e-12
7843.4000	1.4669e-10	2.5565e-12
7844.6500	1.4841e-10	2.5945e-12
7845.9000	1.4875e-10	2.5835e-12
7847.1500	1.4959e-10	2.5685e-12
7848.4000	1.5018e-10	2.5998e-12
7849.6500	1.4778e-10	2.6387e-12
7850.9000	1.4520e-10	2.4460e-12
7852.1500	1.4611e-10	2.5818e-12
7853.4000	1.4334e-10	2.4964e-12
7854.6500	1.4383e-10	2.4943e-12
7855.9000	1.4806e-10	2.6294e-12
7857.1500	1.4810e-10	2.5428e-12
7858.4000	1.4845e-10	2.5960e-12
7859.6500	1.4991e-10	2.5565e-12
7860.9000	1.5133e-10	2.5657e-12
7862.1500	1.4984e-10	2.5893e-12
7863.4000	1.4838e-10	2.5663e-12
7864.6500	1.4880e-10	2.6587e-12
7865.9000	1.5023e-10	2.5657e-12
7867.1500	1.5154e-10	2.5937e-12
7868.4000	1.5165e-10	2.5934e-12
7869.6500	1.4996e-10	2.6192e-12
7870.9000	1.4608e-10	2.4363e-12
7872.1500	1.4723e-10	2.4835e-12
7873.4000	1.4917e-10	2.6139e-12
7874.6500	1.4874e-10	2.4749e-12
7875.9000	1.4955e-10	2.6053e-12
7877.1500	1.5014e-10	2.6386e-12
7878.4000	1.5033e-10	2.6947e-12
7879.6500	1.5033e-10	2.6462e-12
7880.9000	1.5052e-10	2.5699e-12
7882.1500	1.4783e-10	2.5394e-12
7883.4000	1.4644e-10	2.4744e-12
7884.6500	1.4854e-10	2.6079e-12
7885.9000	1.4582e-10	2.5571e-12
7887.1500	1.4706e-10	2.4797e-12
7888.4000	1.5184e-10	2.5962e-12
7889.6500	1.5203e-10	2.6237e-12
7890.9000	1.5195e-10	2.5687e-12
7892.1500	1.5199e-10	2.5614e-12
7893.4000	1.5233e-10	2.5876e-12
7894.6500	1.5042e-10	2.7404e-12
7895.9000	1.4680e-10	2.5562e-12
7897.1500	1.4673e-10	2.4788e-12
7898.4000	1.4898e-10	2.5911e-12
7899.6500	1.4947e-10	2.6442e-12
7900.9000	1.4954e-10	2.5531e-12
7902.1500	1.4953e-10	2.5660e-12
7903.4000	1.5016e-10	2.6869e-12
7904.6500	1.4954e-10	2.5829e-12
7905.9000	1.4894e-10	2.5538e-12
7907.1500	1.4967e-10	2.5965e-12
7908.4000	1.4870e-10	2.5668e-12
7909.6500	1.4519e-10	2.4358e-12
7910.9000	1.4540e-10	2.4200e-12
7912.1500	1.4816e-10	2.5508e-12
7913.4000	1.4207e-10	2.5265e-12
7914.6500	1.3809e-10	2.3484e-12
7915.9000	1.4569e-10	2.4339e-12
7917.1500	1.4850e-10	2.4982e-12
7918.4000	1.4457e-10	2.5496e-12
7919.6500	1.4417e-10	2.4959e-12
7920.9000	1.4800e-10	2.5719e-12
7922.1500	1.4966e-10	2.5385e-12
7923.4000	1.4861e-10	2.5707e-12
7924.6500	1.4781e-10	2.6313e-12
7925.9000	1.4870e-10	2.5564e-12
7927.1500	1.4810e-10	2.6125e-12
7928.4000	1.4782e-10	2.6285e-12
7929.6500	1.4946e-10	2.5652e-12
7930.9000	1.4973e-10	2.6025e-12
7932.1500	1.4846e-10	2.6250e-12
7933.4000	1.4665e-10	2.5811e-12
7934.6500	1.4649e-10	2.6257e-12
7935.9000	1.5025e-10	2.5987e-12
7937.1500	1.4928e-10	2.6781e-12
7938.4000	1.4299e-10	2.5517e-12
7939.6500	1.4237e-10	2.4190e-12
7940.9000	1.4576e-10	2.5729e-12
7942.1500	1.4468e-10	2.6152e-12
7943.4000	1.4436e-10	2.5358e-12
7944.6500	1.4290e-10	2.5044e-12
7945.9000	1.3849e-10	2.4159e-12
7947.1500	1.3913e-10	2.4785e-12
7948.4000	1.4322e-10	2.5686e-12
7949.6500	1.4234e-10	2.5655e-12
7950.9000	1.4263e-10	2.5559e-12
7952.1500	1.4846e-10	2.5818e-12
7953.4000	1.5205e-10	2.6832e-12
7954.6500	1.5190e-10	2.6258e-12
7955.9000	1.4938e-10	2.5809e-12
7957.1500	1.4723e-10	2.6266e-12
7958.4000	1.4853e-10	2.6743e-12
7959.6500	1.4993e-10	2.5417e-12
7960.9000	1.4842e-10	2.5345e-12
7962.1500	1.4772e-10	2.5539e-12
7963.4000	1.4876e-10	2.6224e-12
7964.6500	1.5020e-10	2.6490e-12
7965.9000	1.5017e-10	2.5882e-12
7967.1500	1.5009e-10	2.6505e-12
7968.4000	1.5252e-10	2.6707e-12
7969.6500	1.5371e-10	2.7269e-12
7970.9000	1.5296e-10	2.6896e-12
7972.1500	1.5246e-10	2.7189e-12
7973.4000	1.5301e-10	2.5772e-12
7974.6500	1.5339e-10	2.7004e-12
7975.9000	1.5310e-10	2.7124e-12
7977.1500	1.5265e-10	2.7076e-12
7978.4000	1.5032e-10	2.6304e-12
7979.6500	1.4427e-10	2.5134e-12
7980.9000	1.4488e-10	2.5939e-12
7982.1500	1.5064e-10	2.6345e-12
7983.4000	1.5274e-10	2.7028e-12
7984.6500	1.5385e-10	2.7100e-12
7985.9000	1.5380e-10	2.7226e-12
7987.1500	1.5046e-10	2.5959e-12
7988.4000	1.4423e-10	2.5070e-12
7989.6500	1.4635e-10	2.6355e-12
7990.9000	1.5350e-10	2.7748e-12
7992.1500	1.5457e-10	2.6824e-12
7993.4000	1.5188e-10	2.6764e-12
7994.6500	1.4804e-10	2.6913e-12
7995.9000	1.4560e-10	2.5280e-12
7997.1500	1.4657e-10	2.5501e-12
7998.4000	1.4902e-10	2.6332e-12
7999.6500	1.4695e-10	2.5081e-12
8000.9000	1.4613e-10	2.5747e-12
8002.1500	1.5122e-10	2.7460e-12
8003.4000	1.5203e-10	2.6982e-12
8004.6500	1.5084e-10	2.7083e-12
8005.9000	1.5207e-10	2.7149e-12
8007.1500	1.5342e-10	2.7283e-12
8008.4000	1.5264e-10	2.6945e-12
8009.6500	1.5259e-10	2.7812e-12
8010.9000	1.5366e-10	2.7561e-12
8012.1500	1.5340e-10	2.6388e-12
8013.4000	1.5338e-10	2.6860e-12
8014.6500	1.5514e-10	2.7871e-12
8015.9000	1.5604e-10	2.7092e-12
8017.1500	1.5525e-10	2.8028e-12
8018.4000	1.5433e-10	2.8230e-12
8019.6500	1.5469e-10	2.7784e-12
8020.9000	1.5540e-10	2.7069e-12
8022.1500	1.5431e-10	2.6887e-12
8023.4000	1.5427e-10	2.7826e-12
8024.6500	1.5249e-10	2.7931e-12
8025.9000	1.4505e-10	2.5516e-12
8027.1500	1.3959e-10	2.4598e-12
8028.4000	1.3422e-10	2.3397e-12
8029.6500	1.3806e-10	2.3323e-12
8030.9000	1.5018e-10	2.7471e-12
8032.1500	1.5471e-10	2.8194e-12
8033.4000	1.5545e-10	2.7053e-12
8034.6500	1.5562e-10	2.7362e-12
8035.9000	1.5471e-10	2.8128e-12
8037.1500	1.5476e-10	2.7913e-12
8038.4000	1.5650e-10	2.7980e-12
8039.6500	1.5682e-10	2.8174e-12
8040.9000	1.5570e-10	2.7021e-12
8042.1500	1.5457e-10	2.7171e-12
8043.4000	1.5459e-10	2.6667e-12
8044.6500	1.5317e-10	2.6797e-12
8045.9000	1.5114e-10	2.7401e-12
8047.1500	1.4659e-10	2.5438e-12
8048.4000	1.4040e-10	2.4973e-12
8049.6500	1.4397e-10	2.5848e-12
8050.9000	1.5091e-10	2.8369e-12
8052.1500	1.5296e-10	2.7203e-12
8053.4000	1.5445e-10	2.6728e-12
8054.6500	1.5259e-10	2.6727e-12
8055.9000	1.5109e-10	2.6158e-12
8057.1500	1.5237e-10	2.7112e-12
8058.4000	1.5334e-10	2.7508e-12
8059.6500	1.5396e-10	2.7287e-12
8060.9000	1.5453e-10	2.7039e-12
8062.1500	1.5479e-10	2.7823e-12
8063.4000	1.5277e-10	2.7382e-12
8064.6500	1.5060e-10	2.7076e-12
8065.9000	1.5274e-10	2.7099e-12
8067.1500	1.5284e-10	2.7847e-12
8068.4000	1.4904e-10	2.6825e-12
8069.6500	1.4491e-10	2.5643e-12
8070.9000	1.4152e-10	2.4402e-12
8072.1500	1.4361e-10	2.6391e-12
8073.4000	1.4884e-10	2.8058e-12
8074.6500	1.5081e-10	2.7489e-12
8075.9000	1.4552e-10	2.6619e-12
8077.1500	1.4581e-10	2.5058e-12
8078.4000	1.5398e-10	2.7416e-12
8079.6500	1.5585e-10	2.8340e-12
8080.9000	1.5296e-10	2.8000e-12
8082.1500	1.4961e-10	2.6825e-12
8083.4000	1.5143e-10	2.7076e-12
8084.6500	1.5326e-10	2.8503e-12
8085.9000	1.4897e-10	2.7250e-12
8087.1500	1.4930e-10	2.7161e-12
8088.4000	1.5520e-10	2.7643e-12
8089.6500	1.5552e-10	2.8210e-12
8090.9000	1.5260e-10	2.7440e-12
8092.1500	1.5153e-10	2.7725e-12
8093.4000	1.4530e-10	2.6340e-12
8094.6500	1.3667e-10	2.4672e-12
8095.9000	1.4402e-10	2.5639e-12
8097.1500	1.5136e-10	2.8163e-12
8098.4000	1.4937e-10	2.7655e-12
8099.6500	1.4791e-10	2.6618e-12
8100.9000	1.4895e-10	2.6524e-12
8102.1500	1.5229e-10	2.8148e-12
8103.4000	1.5447e-10	2.8250e-12
8104.6500	1.5404e-10	2.8002e-12
8105.9000	1.5304e-10	2.8603e-12
8107.1500	1.5311e-10	2.8019e-12
8108.4000	1.5236e-10	2.8202e-12
8109.6500	1.5051e-10	2.7329e-12
8110.9000	1.5055e-10	2.6720e-12
8112.1500	1.5189e-10	2.7257e-12
8113.4000	1.5104e-10	2.6098e-12
8114.6500	1.5138e-10	2.7263e-12
8115.9000	1.5048e-10	2.7675e-12
8117.1500	1.3917e-10	2.4730e-12
8118.4000	1.3350e-10	2.4013e-12
8119.6500	1.4544e-10	2.7269e-12
8120.9000	1.5279e-10	2.8712e-12
8122.1500	1.5267e-10	2.7675e-12
8123.4000	1.5348e-10	2.8114e-12
8124.6500	1.5503e-10	2.8834e-12
8125.9000	1.5450e-10	2.8099e-12
8127.1500	1.5296e-10	2.7945e-12
8128.4000	1.5256e-10	2.7242e-12
8129.6500	1.5344e-10	2.7319e-12
8130.9000	1.5235e-10	2.7829e-12
8132.1500	1.4896e-10	2.7303e-12
8133.4000	1.4627e-10	2.5560e-12
8134.6500	1.4729e-10	2.5568e-12
8135.9000	1.5265e-10	2.7314e-12
8137.1500	1.5453e-10	2.7725e-12
8138.4000	1.5317e-10	2.7189e-12
8139.6500	1.5292e-10	2.8297e-12
8140.9000	1.5333e-10	2.7344e-12
8142.1500	1.5331e-10	2.6813e-12
8143.4000	1.5231e-10	2.7431e-12
8144.6500	1.4944e-10	2.7326e-12
8145.9000	1.4551e-10	2.6808e-12
8147.1500	1.4683e-10	2.6718e-12
8148.4000	1.5129e-10	2.7235e-12
8149.6500	1.5328e-10	2.8084e-12
8150.9000	1.5110e-10	2.7829e-12
8152.1500	1.5092e-10	2.7612e-12
8153.4000	1.5059e-10	2.6400e-12
8154.6500	1.5324e-10	2.6503e-12
8155.9000	1.5277e-10	2.8024e-12
8157.1500	1.5218e-10	2.7609e-12
8158.4000	1.5602e-10	2.8659e-12
8159.6500	1.5417e-10	2.8689e-12
8160.9000	1.4483e-10	2.7479e-12
8162.1500	1.3369e-10	2.3008e-12
8163.4000	1.3531e-10	2.3223e-12
8164.6500	1.5187e-10	2.6155e-12
8165.9000	1.5631e-10	2.7903e-12
8167.1500	1.5297e-10	2.7632e-12
8168.4000	1.5043e-10	2.7160e-12
8169.6500	1.5319e-10	2.5334e-12
8170.9000	1.5426e-10	2.7474e-12
8172.1500	1.5377e-10	2.8127e-12
8173.4000	1.5321e-10	2.7907e-12
8174.6500	1.5137e-10	2.7905e-12
8175.9000	1.4770e-10	2.7558e-12
8177.1500	1.5226e-10	2.5183e-12
8178.4000	1.5581e-10	2.6980e-12
8179.6500	1.5296e-10	2.7411e-12
8180.9000	1.5024e-10	2.7425e-12
8182.1500	1.5209e-10	2.7215e-12
8183.4000	1.4777e-10	2.7823e-12
8184.6500	1.3940e-10	2.6491e-12
8185.9000	1.4484e-10	2.4611e-12
8187.1500	1.4545e-10	2.7448e-12
8188.4000	1.4070e-10	2.5776e-12
8189.6500	1.4977e-10	2.6510e-12
8190.9000	1.5566e-10	2.8170e-12
8192.1500	1.5386e-10	2.8427e-12
8193.4000	1.5563e-10	2.7497e-12
8194.6500	1.4953e-10	2.7672e-12
8195.9000	1.3526e-10	2.5735e-12
8197.1500	1.3832e-10	2.3580e-12
8198.4000	1.4866e-10	2.7018e-12
8199.6500	1.4588e-10	2.6665e-12
8200.9000	1.4669e-10	2.6550e-12
8202.1500	1.4932e-10	2.7554e-12
8203.4000	1.4794e-10	2.7956e-12
8204.6500	1.4521e-10	2.7130e-12
8205.9000	1.4080e-10	2.6305e-12
8207.1500	1.4486e-10	2.6567e-12
8208.4000	1.4802e-10	2.7138e-12
8209.6500	1.4809e-10	2.7750e-12
8210.9000	1.5086e-10	2.7874e-12
8212.1500	1.5206e-10	2.7894e-12
8213.4000	1.4493e-10	2.7116e-12
8214.6500	1.4217e-10	2.6746e-12
8215.9000	1.4784e-10	2.6861e-12
8217.1500	1.5019e-10	2.7552e-12
8218.4000	1.5354e-10	2.8119e-12
8219.6500	1.5327e-10	2.7438e-12
8220.9000	1.4663e-10	2.6916e-12
8222.1500	1.4365e-10	2.7196e-12
8223.4000	1.4897e-10	2.7716e-12
8224.6500	1.4974e-10	2.7196e-12
8225.9000	1.4616e-10	2.5681e-12
8227.1500	1.4626e-10	2.5562e-12
8228.4000	1.5387e-10	2.6439e-12
8229.6500	1.5265e-10	2.4467e-12
8230.9000	1.5199e-10	2.6937e-12
8232.1500	1.4957e-10	2.6235e-12
8233.4000	1.4685e-10	2.7216e-12
8234.6500	1.4957e-10	2.8784e-12
8235.9000	1.5294e-10	2.9231e-12
8237.1500	1.5268e-10	2.8376e-12
8238.4000	1.5185e-10	2.8674e-12
8239.6500	1.4951e-10	2.7661e-12
8240.9000	1.4792e-10	2.7963e-12
8242.1500	1.4659e-10	2.7373e-12
8243.4000	1.4932e-10	2.7271e-12
8244.6500	1.5279e-10	2.9314e-12
8245.9000	1.5477e-10	2.9432e-12
8247.1500	1.5506e-10	2.9892e-12
8248.4000	1.5203e-10	2.8902e-12
8249.6500	1.5050e-10	2.8834e-12
8250.9000	1.5255e-10	2.9333e-12
8252.1500	1.5312e-10	2.8661e-12
8253.4000	1.4896e-10	2.8385e-12
8254.6500	1.4167e-10	2.5154e-12
8255.9000	1.4080e-10	2.6091e-12
8257.1500	1.4141e-10	2.7373e-12
8258.4000	1.4509e-10	2.8564e-12
8259.6500	1.5254e-10	2.9049e-12
8260.9000	1.5536e-10	3.0005e-12
8262.1500	1.5483e-10	2.9153e-12
8263.4000	1.5481e-10	2.8688e-12
8264.6500	1.5403e-10	2.8726e-12
8265.9000	1.5376e-10	2.8829e-12
8267.1500	1.5349e-10	2.9753e-12
8268.4000	1.5151e-10	2.8615e-12
8269.6500	1.5127e-10	2.8718e-12
8270.9000	1.5167e-10	2.9327e-12
8272.1500	1.5176e-10	2.9403e-12
8273.4000	1.4972e-10	2.6854e-12
8274.6500	1.5144e-10	2.6548e-12
8275.9000	1.5068e-10	2.6692e-12
8277.1500	1.4997e-10	2.8616e-12
8278.4000	1.5005e-10	2.8078e-12
8279.6500	1.5197e-10	2.9315e-12
8280.9000	1.5107e-10	2.7518e-12
8282.1500	1.5439e-10	2.8414e-12
8283.4000	1.5344e-10	2.8711e-12
8284.6500	1.5071e-10	2.7600e-12
8285.9000	1.4934e-10	2.7661e-12
8287.1500	1.4823e-10	2.7096e-12
8288.4000	1.5056e-10	2.8242e-12
8289.6500	1.5196e-10	2.9208e-12
8290.9000	1.5055e-10	2.8631e-12
8292.1500	1.4999e-10	2.9752e-12
8293.4000	1.4773e-10	2.7859e-12
8294.6500	1.4747e-10	2.5483e-12
8295.9000	1.5008e-10	2.8094e-12
8297.1500	1.5212e-10	2.9138e-12
8298.4000	1.5059e-10	2.8974e-12
8299.6500	1.4845e-10	2.6943e-12
8300.9000	1.5147e-10	2.7830e-12
8302.1500	1.5252e-10	2.8564e-12
8303.4000	1.4857e-10	2.8144e-12
8304.6500	1.4916e-10	2.6602e-12
8305.9000	1.4724e-10	2.8497e-12
8307.1500	1.3952e-10	2.8314e-12
8308.4000	1.3452e-10	2.4494e-12
8309.6500	1.3998e-10	2.6847e-12
8310.9000	1.4405e-10	2.8607e-12
8312.1500	1.4353e-10	2.6441e-12
8313.4000	1.4627e-10	2.7159e-12
8314.6500	1.4920e-10	2.8833e-12
8315.9000	1.5034e-10	2.8484e-12
8317.1500	1.4985e-10	2.7302e-12
8318.4000	1.5330e-10	2.9233e-12
8319.6500	1.5181e-10	2.8793e-12
8320.9000	1.4910e-10	2.6887e-12
8322.1500	1.4918e-10	2.8625e-12
8323.4000	1.5070e-10	2.9341e-12
8324.6500	1.5096e-10	2.9531e-12
8325.9000	1.5031e-10	2.8904e-12
8327.1500	1.4302e-10	2.9453e-12
8328.4000	1.3364e-10	2.6098e-12
8329.6500	1.4235e-10	2.5753e-12
8330.9000	1.5176e-10	3.0125e-12
8332.1500	1.4759e-10	2.9111e-12
8333.4000	1.4347e-10	2.8646e-12
8334.6500	1.4212e-10	2.7918e-12
8335.9000	1.4146e-10	2.7747e-12
8337.1500	1.4628e-10	2.6856e-12
8338.4000	1.4933e-10	2.9096e-12
8339.6500	1.4661e-10	2.8677e-12
8340.9000	1.4629e-10	2.8694e-12
8342.1500	1.5007e-10	2.8194e-12
8343.4000	1.4980e-10	2.9615e-12
8344.6500	1.4883e-10	2.8664e-12
8345.9000	1.4847e-10	2.8299e-12
8347.1500	1.4399e-10	2.7750e-12
8348.4000	1.4232e-10	2.7380e-12
8349.6500	1.3998e-10	2.8164e-12
8350.9000	1.4128e-10	2.8818e-12
8352.1500	1.4927e-10	2.8193e-12
8353.4000	1.4764e-10	2.9146e-12
8354.6500	1.4245e-10	2.8178e-12
8355.9000	1.4623e-10	2.8918e-12
8357.1500	1.5147e-10	2.9579e-12
8358.4000	1.5087e-10	2.9236e-12
8359.6500	1.4877e-10	2.8752e-12
8360.9000	1.4843e-10	2.8612e-12
8362.1500	1.4794e-10	2.8149e-12
8363.4000	1.4553e-10	2.8773e-12
8364.6500	1.3671e-10	2.6397e-12
8365.9000	1.3110e-10	2.5774e-12
8367.1500	1.4032e-10	2.8170e-12
8368.4000	1.5033e-10	2.9979e-12
8369.6500	1.5315e-10	3.0643e-12
8370.9000	1.5021e-10	2.9270e-12
8372.1500	1.4860e-10	2.9529e-12
8373.4000	1.4963e-10	2.9335e-12
8374.6500	1.4961e-10	2.9175e-12
8375.9000	1.5060e-10	2.9520e-12
8377.1500	1.4987e-10	3.0238e-12
8378.4000	1.3994e-10	2.6927e-12
8379.6500	1.3705e-10	2.5980e-12
8380.9000	1.4823e-10	3.0648e-12
8382.1500	1.4786e-10	2.9638e-12
8383.4000	1.2774e-10	2.2634e-12
8384.6500	1.2564e-10	2.3247e-12
8385.9000	1.4426e-10	3.1405e-12
8387.1500	1.4541e-10	2.8820e-12
8388.4000	1.3358e-10	2.4876e-12
8389.6500	1.2997e-10	2.5879e-12
8390.9000	1.3848e-10	2.9503e-12
8392.1500	1.4731e-10	2.9933e-12
8393.4000	1.5237e-10	3.0602e-12
8394.6500	1.5343e-10	3.0536e-12
8395.9000	1.5147e-10	3.0130e-12
8397.1500	1.4429e-10	2.8057e-12
8398.4000	1.3804e-10	2.6588e-12
8399.6500	1.4554e-10	2.9590e-12
8400.9000	1.5206e-10	3.1686e-12
8402.1500	1.4844e-10	2.9464e-12
8403.4000	1.4581e-10	2.8661e-12
8404.6500	1.4969e-10	3.0065e-12
8405.9000	1.5199e-10	3.0992e-12
8407.1500	1.5229e-10	3.0066e-12
8408.4000	1.5320e-10	3.0225e-12
8409.6500	1.5352e-10	2.9377e-12
8410.9000	1.5360e-10	3.0988e-12
8412.1500	1.4842e-10	3.0825e-12
8413.4000	1.3687e-10	2.7092e-12
8414.6500	1.3725e-10	2.6833e-12
8415.9000	1.4744e-10	3.0427e-12
8417.1500	1.4900e-10	3.1137e-12
8418.4000	1.4402e-10	2.8743e-12
8419.6500	1.4516e-10	2.8001e-12
8420.9000	1.4938e-10	2.9910e-12
8422.1500	1.5097e-10	3.0078e-12
8423.4000	1.4870e-10	2.9945e-12
8424.6500	1.4327e-10	2.9129e-12
8425.9000	1.3999e-10	2.8060e-12
8427.1500	1.3239e-10	2.6703e-12
8428.4000	1.3322e-10	2.5822e-12
8429.6500	1.4781e-10	2.9219e-12
8430.9000	1.5388e-10	3.1279e-12
8432.1500	1.5373e-10	3.0864e-12
8433.4000	1.5271e-10	3.1157e-12
8434.6500	1.4504e-10	3.0849e-12
8435.9000	1.2247e-10	2.6344e-12
8437.1500	1.1709e-10	2.2238e-12
8438.4000	1.3839e-10	2.6141e-12
8439.6500	1.4338e-10	3.0306e-12
8440.9000	1.4060e-10	2.8370e-12
8442.1500	1.4622e-10	2.9637e-12
8443.4000	1.4811e-10	3.1127e-12
8444.6500	1.4665e-10	3.0319e-12
8445.9000	1.4781e-10	3.0716e-12
8447.1500	1.4690e-10	2.9537e-12
8448.4000	1.4419e-10	2.9258e-12
8449.6500	1.4570e-10	3.0002e-12
8450.9000	1.4471e-10	3.0419e-12
8452.1500	1.4124e-10	2.9225e-12
8453.4000	1.4416e-10	2.9115e-12
8454.6500	1.4693e-10	2.8891e-12
8455.9000	1.4645e-10	2.9541e-12
8457.1500	1.4435e-10	3.0166e-12
8458.4000	1.4203e-10	2.8694e-12
8459.6500	1.4471e-10	2.9849e-12
8460.9000	1.4860e-10	3.0387e-12
8462.1500	1.4997e-10	3.1361e-12
8463.4000	1.5050e-10	3.0049e-12
8464.6500	1.4834e-10	2.9852e-12
8465.9000	1.4455e-10	2.8488e-12
8467.1500	1.4181e-10	2.8107e-12
8468.4000	1.3544e-10	2.7324e-12
8469.6500	1.2969e-10	2.6176e-12
8470.9000	1.3800e-10	2.8504e-12
8472.1500	1.4601e-10	2.9303e-12
8473.4000	1.4599e-10	2.8811e-12
8474.6500	1.4736e-10	3.0190e-12
8475.9000	1.4942e-10	3.1015e-12
8477.1500	1.4949e-10	3.0075e-12
8478.4000	1.4890e-10	3.0120e-12
8479.6500	1.4922e-10	3.0782e-12
8480.9000	1.4877e-10	3.0411e-12
8482.1500	1.4694e-10	2.8668e-12
8483.4000	1.4478e-10	2.9862e-12
8484.6500	1.4482e-10	2.9885e-12
8485.9000	1.4777e-10	3.0912e-12
8487.1500	1.4967e-10	3.0435e-12
8488.4000	1.4941e-10	3.0232e-12
8489.6500	1.4866e-10	3.0201e-12
8490.9000	1.4957e-10	3.0803e-12
8492.1500	1.4979e-10	3.1705e-12
8493.4000	1.4837e-10	3.0996e-12
8494.6500	1.4459e-10	2.9368e-12
8495.9000	1.3821e-10	2.8773e-12
8497.1500	1.2661e-10	2.7293e-12
8498.4000	1.0040e-10	2.0253e-12
8499.6500	8.6616e-11	1.5881e-12
8500.9000	1.1172e-10	2.4000e-12
8502.1500	1.3587e-10	2.9477e-12
8503.4000	1.4150e-10	2.9530e-12
8504.6500	1.4436e-10	3.0128e-12
8505.9000	1.4614e-10	3.0687e-12
8507.1500	1.4673e-10	3.0964e-12
8508.4000	1.4829e-10	3.1578e-12
8509.6500	1.4928e-10	3.1070e-12
8510.9000	1.4904e-10	3.1177e-12
8512.1500	1.4840e-10	3.0994e-12
8513.4000	1.4687e-10	3.1164e-12
8514.6500	1.3839e-10	2.9207e-12
8515.9000	1.2980e-10	2.6735e-12
8517.1500	1.3550e-10	2.7913e-12
8518.4000	1.3820e-10	2.9799e-12
8519.6500	1.3385e-10	2.8284e-12
8520.9000	1.4041e-10	2.9541e-12
8522.1500	1.4717e-10	3.1006e-12
8523.4000	1.4751e-10	3.0721e-12
8524.6500	1.4757e-10	3.1077e-12
8525.9000	1.4676e-10	3.0579e-12
8527.1500	1.4408e-10	3.0427e-12
8528.4000	1.4318e-10	2.9912e-12
8529.6500	1.4531e-10	2.9958e-12
8530.9000	1.4546e-10	3.0493e-12
8532.1500	1.4312e-10	3.0423e-12
8533.4000	1.4265e-10	3.0909e-12
8534.6500	1.4351e-10	3.0345e-12
8535.9000	1.4180e-10	3.0755e-12
8537.1500	1.3801e-10	2.9352e-12
8538.4000	1.3172e-10	2.7614e-12
8539.6500	1.2090e-10	2.5926e-12
8540.9000	1.0418e-10	2.2480e-12
8542.1500	7.7620e-11	1.7072e-12
8543.4000	5.6605e-11	1.2484e-12
8544.6500	7.0573e-11	1.5797e-12
8545.9000	1.0116e-10	2.2135e-12
8547.1500	1.2049e-10	2.6525e-12
8548.4000	1.2721e-10	2.7029e-12
8549.6500	1.2913e-10	2.8421e-12
8550.9000	1.3498e-10	2.8725e-12
8552.1500	1.4077e-10	2.9551e-12
8553.4000	1.4494e-10	3.1518e-12
8554.6500	1.4717e-10	3.0446e-12
8555.9000	1.4610e-10	3.1995e-12
8557.1500	1.4405e-10	3.0072e-12
8558.4000	1.4504e-10	3.1190e-12
8559.6500	1.4746e-10	3.1332e-12
8560.9000	1.4775e-10	3.1823e-12
8562.1500	1.4734e-10	3.1348e-12
8563.4000	1.4758e-10	3.1203e-12
8564.6500	1.4860e-10	3.1429e-12
8565.9000	1.4797e-10	3.0960e-12
8567.1500	1.4736e-10	3.0144e-12
8568.4000	1.4873e-10	3.0518e-12
8569.6500	1.4817e-10	3.1296e-12
8570.9000	1.4616e-10	2.9952e-12
8572.1500	1.4657e-10	3.0477e-12
8573.4000	1.4802e-10	3.1098e-12
8574.6500	1.4779e-10	3.1602e-12
8575.9000	1.4484e-10	2.9876e-12
8577.1500	1.4533e-10	3.0397e-12
8578.4000	1.4839e-10	3.1773e-12
8579.6500	1.4813e-10	2.9327e-12
8580.9000	1.4898e-10	3.1582e-12
8582.1500	1.4820e-10	3.2369e-12
8583.4000	1.4260e-10	2.9664e-12
8584.6500	1.4322e-10	2.9332e-12
8585.9000	1.4851e-10	3.1082e-12
8587.1500	1.5013e-10	3.1459e-12
8588.4000	1.5030e-10	3.1384e-12
8589.6500	1.5012e-10	3.2108e-12
8590.9000	1.5013e-10	3.1505e-12
8592.1500	1.4985e-10	3.1196e-12
8593.4000	1.4849e-10	3.1345e-12
8594.6500	1.4825e-10	3.2072e-12
8595.9000	1.4943e-10	3.2501e-12
8597.1500	1.4875e-10	3.1073e-12
8598.4000	1.4669e-10	3.1878e-12
8599.6500	1.4413e-10	3.1147e-12
8600.9000	1.4580e-10	3.1311e-12
8602.1500	1.4883e-10	3.2081e-12
8603.4000	1.4960e-10	3.2379e-12
8604.6500	1.5005e-10	3.2087e-12
8605.9000	1.5070e-10	3.3301e-12
8607.1500	1.5044e-10	3.1993e-12
8608.4000	1.5025e-10	3.1446e-12
8609.6500	1.5062e-10	3.2509e-12
8610.9000	1.4940e-10	3.2331e-12
8612.1500	1.4388e-10	3.1229e-12
8613.4000	1.4035e-10	2.9564e-12
8614.6500	1.4468e-10	3.1437e-12
8615.9000	1.4901e-10	3.2638e-12
8617.1500	1.4939e-10	3.1804e-12
8618.4000	1.4884e-10	3.1521e-12
8619.6500	1.4879e-10	3.1503e-12
8620.9000	1.4967e-10	3.1879e-12
8622.1500	1.4719e-10	3.1388e-12
8623.4000	1.4400e-10	3.1040e-12
8624.6500	1.4734e-10	3.1024e-12
8625.9000	1.5135e-10	3.2495e-12
8627.1500	1.5233e-10	3.3159e-12
8628.4000	1.5217e-10	3.2715e-12
8629.6500	1.5180e-10	3.1864e-12
8630.9000	1.5179e-10	3.2036e-12
8632.1500	1.5151e-10	3.3058e-12
8633.4000	1.5031e-10	3.2769e-12
8634.6500	1.4917e-10	3.2732e-12
8635.9000	1.4934e-10	3.1655e-12
8637.1500	1.4972e-10	3.2559e-12
8638.4000	1.5014e-10	3.2598e-12
8639.6500	1.5155e-10	3.2646e-12
8640.9000	1.5216e-10	3.2624e-12
8642.1500	1.5131e-10	3.2767e-12
8643.4000	1.4947e-10	3.2020e-12
8644.6500	1.4906e-10	3.2599e-12
8645.9000	1.5049e-10	3.3362e-12
8647.1500	1.5109e-10	3.2658e-12
8648.4000	1.4952e-10	3.3094e-12
8649.6500	1.4705e-10	3.2218e-12
8650.9000	1.4726e-10	3.2898e-12
8652.1500	1.4859e-10	3.3567e-12
8653.4000	1.4810e-10	3.2685e-12
8654.6500	1.4668e-10	3.1644e-12
8655.9000	1.4520e-10	3.1419e-12
8657.1500	1.4424e-10	3.1187e-12
8658.4000	1.4125e-10	3.0636e-12
8659.6500	1.3446e-10	2.8383e-12
8660.9000	1.1979e-10	2.5583e-12
8662.1500	9.0405e-11	1.9208e-12
8663.4000	6.3434e-11	1.1884e-12
8664.6500	7.6641e-11	1.7576e-12
8665.9000	1.1048e-10	2.7121e-12
8667.1500	1.3028e-10	3.0240e-12
8668.4000	1.3805e-10	3.0887e-12
8669.6500	1.4237e-10	3.2062e-12
8670.9000	1.4595e-10	3.2644e-12
8672.1500	1.4727e-10	3.1993e-12
8673.4000	1.4746e-10	3.2825e-12
8674.6500	1.4441e-10	3.1666e-12
8675.9000	1.3219e-10	2.8634e-12
8677.1500	1.3164e-10	2.7845e-12
8678.4000	1.4551e-10	3.2774e-12
8679.6500	1.4863e-10	3.3229e-12
8680.9000	1.4634e-10	3.0537e-12
8682.1500	1.4694e-10	3.2058e-12
8683.4000	1.4325e-10	3.1297e-12
8684.6500	1.3874e-10	2.9768e-12
8685.9000	1.4471e-10	3.1119e-12
8687.1500	1.4994e-10	3.4153e-12
8688.4000	1.4392e-10	3.2035e-12
8689.6500	1.2907e-10	2.6390e-12
8690.9000	1.3021e-10	2.7095e-12
8692.1500	1.4314e-10	3.3508e-12
8693.4000	1.4217e-10	3.1213e-12
8694.6500	1.4408e-10	3.1055e-12
8695.9000	1.5047e-10	3.4333e-12
8697.1500	1.5180e-10	3.2763e-12
8698.4000	1.5118e-10	3.4060e-12
8699.6500	1.4710e-10	3.2859e-12
8700.9000	1.4497e-10	3.1985e-12
8702.1500	1.4790e-10	3.2721e-12
8703.4000	1.4910e-10	3.2155e-12
8704.6500	1.4925e-10	3.2576e-12
8705.9000	1.5112e-10	3.2282e-12
8707.1500	1.5203e-10	3.4164e-12
8708.4000	1.5100e-10	3.3564e-12
8709.6500	1.5045e-10	3.3869e-12
8710.9000	1.4808e-10	3.3055e-12
8712.1500	1.4617e-10	3.2929e-12
8713.4000	1.4552e-10	3.2967e-12
8714.6500	1.4430e-10	3.1669e-12
8715.9000	1.4821e-10	3.2457e-12
8717.1500	1.5122e-10	3.3296e-12
8718.4000	1.4903e-10	3.3210e-12
8719.6500	1.4707e-10	3.2267e-12
8720.9000	1.4761e-10	3.2201e-12
8722.1500	1.5038e-10	3.3481e-12
8723.4000	1.5253e-10	3.2829e-12
8724.6500	1.5265e-10	3.3453e-12
8725.9000	1.5187e-10	3.4009e-12
8727.1500	1.5125e-10	3.3689e-12
8728.4000	1.5068e-10	3.3075e-12
8729.6500	1.4869e-10	3.2971e-12
8730.9000	1.4842e-10	3.3186e-12
8732.1500	1.5057e-10	3.3340e-12
8733.4000	1.5212e-10	3.3554e-12
8734.6500	1.4973e-10	3.3399e-12
8735.9000	1.4221e-10	3.1121e-12
8737.1500	1.4043e-10	3.1040e-12
8738.4000	1.4700e-10	3.2664e-12
8739.6500	1.5157e-10	3.3818e-12
8740.9000	1.5191e-10	3.4217e-12
8742.1500	1.5008e-10	3.2322e-12
8743.4000	1.4907e-10	3.2645e-12
8744.6500	1.5076e-10	3.3892e-12
8745.9000	1.5293e-10	3.4109e-12
8747.1500	1.5233e-10	3.2818e-12
8748.4000	1.4966e-10	3.3078e-12
8749.6500	1.4937e-10	3.3432e-12
8750.9000	1.5098e-10	3.4993e-12
8752.1500	1.5008e-10	3.3276e-12
8753.4000	1.4905e-10	3.2938e-12
8754.6500	1.5119e-10	3.4443e-12
8755.9000	1.5320e-10	3.4020e-12
8757.1500	1.5032e-10	3.3768e-12
8758.4000	1.4478e-10	3.1954e-12
8759.6500	1.4744e-10	3.2582e-12
8760.9000	1.5291e-10	3.4393e-12
8762.1500	1.5232e-10	3.3496e-12
8763.4000	1.5043e-10	3.4700e-12
8764.6500	1.4758e-10	3.3809e-12
8765.9000	1.4636e-10	3.3279e-12
8767.1500	1.4506e-10	3.2756e-12
8768.4000	1.4346e-10	3.1420e-12
8769.6500	1.4925e-10	3.4255e-12
8770.9000	1.5219e-10	3.4460e-12
8772.1500	1.4987e-10	3.4004e-12
8773.4000	1.4552e-10	3.2690e-12
8774.6500	1.4024e-10	3.2065e-12
8775.9000	1.4424e-10	3.2513e-12
8777.1500	1.5169e-10	3.6355e-12
8778.4000	1.5297e-10	3.4679e-12
8779.6500	1.4889e-10	3.3316e-12
8780.9000	1.4779e-10	3.2839e-12
8782.1500	1.5083e-10	3.4410e-12
8783.4000	1.5298e-10	3.5018e-12
8784.6500	1.5302e-10	3.5600e-12
8785.9000	1.5172e-10	3.3026e-12
8787.1500	1.5284e-10	3.3119e-12
8788.4000	1.5428e-10	3.4382e-12
8789.6500	1.5391e-10	3.4357e-12
8790.9000	1.5100e-10	3.3717e-12
8792.1500	1.4917e-10	3.4512e-12
8793.4000	1.4957e-10	3.2861e-12
8794.6500	1.4718e-10	3.3282e-12
8795.9000	1.4934e-10	3.4069e-12
8797.1500	1.5183e-10	3.4297e-12
8798.4000	1.5184e-10	3.3688e-12
8799.6500	1.5294e-10	3.5111e-12
8800.9000	1.5257e-10	3.5006e-12
8802.1500	1.5110e-10	3.3850e-12
8803.4000	1.5110e-10	3.5596e-12
8804.6500	1.4848e-10	3.3400e-12
8805.9000	1.3993e-10	3.1938e-12
8807.1500	1.2581e-10	2.8827e-12
8808.4000	1.1815e-10	2.6239e-12
8809.6500	1.3248e-10	3.1231e-12
8810.9000	1.4702e-10	3.3782e-12
8812.1500	1.5193e-10	3.3305e-12
8813.4000	1.5358e-10	3.4190e-12
8814.6500	1.5347e-10	3.3922e-12
8815.9000	1.5368e-10	3.4678e-12
8817.1500	1.5356e-10	3.4340e-12
8818.4000	1.5318e-10	3.4735e-12
8819.6500	1.5153e-10	3.4508e-12
8820.9000	1.4899e-10	3.4020e-12
8822.1500	1.4861e-10	3.2473e-12
8823.4000	1.4914e-10	3.4248e-12
8824.6500	1.4169e-10	3.2720e-12
8825.9000	1.3552e-10	2.9718e-12
8827.1500	1.4575e-10	3.4537e-12
8828.4000	1.5305e-10	3.4816e-12
8829.6500	1.5285e-10	3.3744e-12
8830.9000	1.5336e-10	3.4795e-12
8832.1500	1.5451e-10	3.5954e-12
8833.4000	1.5399e-10	3.3877e-12
8834.6500	1.5292e-10	3.3672e-12
8835.9000	1.5235e-10	3.5328e-12
8837.1500	1.5124e-10	3.4145e-12
8838.4000	1.4839e-10	3.4292e-12
8839.6500	1.4228e-10	3.2255e-12
8840.9000	1.4345e-10	3.1754e-12
8842.1500	1.5053e-10	3.5107e-12
8843.4000	1.5237e-10	3.5080e-12
8844.6500	1.5309e-10	3.4953e-12
8845.9000	1.5347e-10	3.4929e-12
8847.1500	1.5269e-10	3.5138e-12
8848.4000	1.5189e-10	3.4565e-12
8849.6500	1.5300e-10	3.2976e-12
8850.9000	1.5400e-10	3.5121e-12
8852.1500	1.5433e-10	3.5359e-12
8853.4000	1.5498e-10	3.5389e-12
8854.6500	1.5498e-10	3.5866e-12
8855.9000	1.5465e-10	3.5671e-12
8857.1500	1.5441e-10	3.6344e-12
8858.4000	1.5480e-10	3.6332e-12
8859.6500	1.5421e-10	3.5329e-12
8860.9000	1.5076e-10	3.5188e-12
8862.1500	1.4805e-10	3.4356e-12
8863.4000	1.4620e-10	3.3808e-12
8864.6500	1.4647e-10	3.4289e-12
8865.9000	1.4962e-10	3.4736e-12
8867.1500	1.4909e-10	3.4809e-12
8868.4000	1.4402e-10	3.3482e-12
8869.6500	1.4269e-10	3.3037e-12
8870.9000	1.4664e-10	3.4119e-12
8872.1500	1.4983e-10	3.4325e-12
8873.4000	1.5078e-10	3.4733e-12
8874.6500	1.5077e-10	3.5376e-12
8875.9000	1.4989e-10	3.5189e-12
8877.1500	1.4840e-10	3.3792e-12
8878.4000	1.4727e-10	3.4412e-12
8879.6500	1.4540e-10	3.3706e-12
8880.9000	1.4663e-10	3.3847e-12
8882.1500	1.5037e-10	3.4467e-12
8883.4000	1.5135e-10	3.6057e-12
8884.6500	1.5085e-10	3.5350e-12
8885.9000	1.5067e-10	3.4572e-12
8887.1500	1.5114e-10	3.4568e-12
8888.4000	1.5142e-10	3.4907e-12
8889.6500	1.5185e-10	3.4991e-12
8890.9000	1.5166e-10	3.5690e-12
8892.1500	1.4997e-10	3.4002e-12
8893.4000	1.4879e-10	3.4221e-12
8894.6500	1.4970e-10	3.5673e-12
8895.9000	1.5104e-10	3.6057e-12
8897.1500	1.5147e-10	3.6915e-12
8898.4000	1.5113e-10	3.5380e-12
8899.6500	1.5006e-10	3.4925e-12
8900.9000	1.4998e-10	3.5271e-12
8902.1500	1.5143e-10	3.5467e-12
8903.4000	1.5183e-10	3.5867e-12
8904.6500	1.5138e-10	3.4970e-12
8905.9000	1.5109e-10	3.4435e-12
8907.1500	1.5114e-10	3.5296e-12
8908.4000	1.5187e-10	3.6102e-12
8909.6500	1.5186e-10	3.5444e-12
8910.9000	1.5107e-10	3.5238e-12
8912.1500	1.5100e-10	3.5728e-12
8913.4000	1.5024e-10	3.5672e-12
8914.6500	1.5029e-10	3.5542e-12
8915.9000	1.5111e-10	3.5046e-12
8917.1500	1.5139e-10	3.5571e-12
8918.4000	1.5148e-10	3.5170e-12
8919.6500	1.4897e-10	3.5523e-12
8920.9000	1.4099e-10	3.2515e-12
8922.1500	1.4183e-10	3.2579e-12
8923.4000	1.4914e-10	3.6200e-12
8924.6500	1.4814e-10	3.4832e-12
8925.9000	1.4761e-10	3.4164e-12
8927.1500	1.4796e-10	3.5354e-12
8928.4000	1.4782e-10	3.3916e-12
8929.6500	1.4930e-10	3.4573e-12
8930.9000	1.5004e-10	3.4760e-12
8932.1500	1.4848e-10	3.4938e-12
8933.4000	1.4376e-10	3.5275e-12
8934.6500	1.4344e-10	3.3310e-12
8935.9000	1.4949e-10	3.4091e-12
8937.1500	1.5297e-10	3.6979e-12
8938.4000	1.5168e-10	3.6131e-12
8939.6500	1.5021e-10	3.5383e-12
8940.9000	1.5042e-10	3.4718e-12
8942.1500	1.5038e-10	3.5943e-12
8943.4000	1.4865e-10	3.5210e-12
8944.6500	1.4451e-10	3.3633e-12
8945.9000	1.4314e-10	3.3171e-12
8947.1500	1.4213e-10	3.3468e-12
8948.4000	1.4117e-10	3.3693e-12
8949.6500	1.4523e-10	3.4941e-12
8950.9000	1.4692e-10	3.3604e-12
8952.1500	1.4795e-10	3.4554e-12
8953.4000	1.4777e-10	3.5794e-12
8954.6500	1.4925e-10	3.4227e-12
8955.9000	1.5287e-10	3.6251e-12
8957.1500	1.5053e-10	3.5153e-12
8958.4000	1.5130e-10	3.5236e-12
8959.6500	1.5238e-10	3.7450e-12
8960.9000	1.4633e-10	3.4656e-12
8962.1500	1.4338e-10	3.3030e-12
8963.4000	1.5054e-10	3.3620e-12
8964.6500	1.5103e-10	3.5715e-12
8965.9000	1.5199e-10	3.5100e-12
8967.1500	1.5275e-10	3.6083e-12
8968.4000	1.4885e-10	3.6081e-12
8969.6500	1.4337e-10	3.3953e-12
8970.9000	1.4264e-10	3.3576e-12
8972.1500	1.5058e-10	3.4378e-12
8973.4000	1.4701e-10	3.2187e-12
8974.6500	1.4825e-10	3.3815e-12
8975.9000	1.4972e-10	3.7139e-12
8977.1500	1.4450e-10	3.5223e-12
8978.4000	1.4056e-10	3.3643e-12
8979.6500	1.3912e-10	2.8717e-12
8980.9000	1.5081e-10	2.8241e-12
8982.1500	1.5788e-10	4.4331e-12
8983.4000	1.5424e-10	4.0956e-12
8984.6500	1.4732e-10	3.6708e-12
8985.9000	1.3507e-10	3.0859e-12
8987.1500	1.3660e-10	2.7868e-12
8988.4000	1.5187e-10	3.3893e-12
8989.6500	1.4293e-10	3.1808e-12
8990.9000	1.3483e-10	2.5845e-12
8992.1500	1.5627e-10	3.2126e-12
8993.4000	1.6268e-10	5.5519e-12
8994.6500	1.5541e-10	4.2984e-12
8995.9000	1.5245e-10	3.5965e-12
8997.1500	1.5119e-10	3.6363e-12
8998.4000	1.4377e-10	3.6659e-12
8999.6500	1.3490e-10	2.9115e-12
9000.9000	1.4270e-10	2.6453e-12
9002.1500	1.4400e-10	3.9085e-12
9003.4000	1.4609e-10	3.7139e-12
9004.6500	1.5801e-10	3.5082e-12
9005.9000	1.5155e-10	3.4227e-12
9007.1500	1.4824e-10	3.2795e-12
9008.4000	1.5465e-10	3.6029e-12
9009.6500	1.4913e-10	3.5659e-12
9010.9000	1.3690e-10	2.8208e-12
9012.1500	1.3902e-10	2.5475e-12
9013.4000	1.4696e-10	4.0712e-12
9014.6500	1.3904e-10	3.8642e-12
9015.9000	1.2927e-10	2.6095e-12
9017.1500	1.4542e-10	2.4439e-12
9018.4000	1.5407e-10	4.8660e-12
9019.6500	1.5018e-10	4.5436e-12
9020.9000	1.4505e-10	3.7195e-12
9022.1500	1.3957e-10	3.3691e-12
9023.4000	1.4384e-10	3.2046e-12
9024.6500	1.3733e-10	2.9592e-12
9025.9000	1.4055e-10	3.0117e-12
9027.1500	1.5598e-10	4.2108e-12
9028.4000	1.4809e-10	3.6798e-12
9029.6500	1.4385e-10	3.2826e-12
9030.9000	1.4862e-10	3.6522e-12
9032.1500	1.5275e-10	3.5071e-12
9033.4000	1.5396e-10	3.5684e-12
9034.6500	1.5478e-10	3.6704e-12
9035.9000	1.5429e-10	3.7300e-12
9037.1500	1.5089e-10	3.5674e-12
9038.4000	1.4809e-10	3.5794e-12
9039.6500	1.4900e-10	3.6155e-12
9040.9000	1.5179e-10	3.6507e-12
9042.1500	1.5337e-10	3.5201e-12
9043.4000	1.5824e-10	3.6312e-12
9044.6500	1.5807e-10	3.8102e-12
9045.9000	1.5509e-10	3.8127e-12
9047.1500	1.5217e-10	3.6115e-12
9048.4000	1.5173e-10	3.5697e-12
9049.6500	1.5350e-10	3.6840e-12
9050.9000	1.5261e-10	3.7051e-12
9052.1500	1.5156e-10	3.3719e-12
9053.4000	1.5609e-10	3.1508e-12
9054.6500	1.5922e-10	4.1604e-12
9055.9000	1.5784e-10	4.0904e-12
9057.1500	1.5665e-10	3.7902e-12
9058.4000	1.5422e-10	3.7446e-12
9059.6500	1.5164e-10	3.4948e-12
9060.9000	1.5330e-10	3.3244e-12
9062.1500	1.5316e-10	3.7465e-12
9063.4000	1.5392e-10	3.7604e-12
9064.6500	1.5705e-10	3.6240e-12
9065.9000	1.5710e-10	3.8189e-12
9067.1500	1.5152e-10	3.7610e-12
9068.4000	1.4803e-10	3.2751e-12
9069.6500	1.5465e-10	3.1016e-12
9070.9000	1.4811e-10	3.5303e-12
9072.1500	1.4828e-10	3.1687e-12
9073.4000	1.5979e-10	4.5768e-12
9074.6500	1.6092e-10	3.9994e-12
9075.9000	1.6102e-10	4.5154e-12
9077.1500	1.5570e-10	4.1920e-12
9078.4000	1.4688e-10	3.6065e-12
9079.6500	1.4398e-10	3.2434e-12
9080.9000	1.5153e-10	3.4083e-12
9082.1500	1.5969e-10	3.6607e-12
9083.4000	1.5881e-10	3.9211e-12
9084.6500	1.5069e-10	3.8607e-12
9085.9000	1.3865e-10	3.0577e-12
9087.1500	1.4474e-10	2.8999e-12
9088.4000	1.5321e-10	4.8712e-12
9089.6500	1.3960e-10	3.8966e-12
9090.9000	1.3433e-10	3.1067e-12
9092.1500	1.3688e-10	3.3250e-12
9093.4000	1.4828e-10	3.5907e-12
9094.6500	1.5804e-10	3.5374e-12
9095.9000	1.5859e-10	3.6173e-12
9097.1500	1.5404e-10	3.7017e-12
9098.4000	1.4661e-10	3.6168e-12
9099.6500	1.4713e-10	3.1877e-12
9100.9000	1.6006e-10	3.0907e-12
9102.1500	1.6006e-10	4.2047e-12
9103.4000	1.5364e-10	4.0499e-12
9104.6500	1.4816e-10	3.2657e-12
9105.9000	1.4885e-10	3.0211e-12
9107.1500	1.5246e-10	3.7396e-12
9108.4000	1.5902e-10	3.9643e-12
9109.6500	1.6151e-10	4.1075e-12
9110.9000	1.5857e-10	3.8138e-12
9112.1500	1.5733e-10	3.7281e-12
9113.4000	1.5601e-10	3.7878e-12
9114.6500	1.5405e-10	3.6439e-12
9115.9000	1.5097e-10	3.5011e-12
9117.1500	1.4279e-10	3.1564e-12
9118.4000	1.4196e-10	2.8498e-12
9119.6500	1.5489e-10	3.7982e-12
9120.9000	1.5472e-10	4.1111e-12
9122.1500	1.5566e-10	3.8881e-12
9123.4000	1.5621e-10	3.7185e-12
9124.6500	1.5644e-10	3.6332e-12
9125.9000	1.5738e-10	3.8718e-12
9127.1500	1.5391e-10	3.7713e-12
9128.4000	1.4970e-10	3.4451e-12
9129.6500	1.4929e-10	3.3503e-12
9130.9000	1.5832e-10	3.1340e-12
9132.1500	1.6527e-10	5.2133e-12
9133.4000	1.5644e-10	4.2758e-12
9134.6500	1.4497e-10	3.4099e-12
9135.9000	1.4597e-10	3.0530e-12
9137.1500	1.6386e-10	2.7711e-12
9138.4000	1.6816e-10	5.1333e-12
9139.6500	1.5951e-10	4.4771e-12
9140.9000	1.5437e-10	3.5658e-12
9142.1500	1.5027e-10	3.6577e-12
9143.4000	1.5041e-10	3.5477e-12
9144.6500	1.5507e-10	3.5356e-12
9145.9000	1.5571e-10	3.9883e-12
9147.1500	1.5036e-10	3.7750e-12
9148.4000	1.4691e-10	3.6455e-12
9149.6500	1.4788e-10	3.5918e-12
9150.9000	1.4677e-10	3.4266e-12
9152.1500	1.4569e-10	3.1113e-12
9153.4000	1.5218e-10	3.2496e-12
9154.6500	1.4755e-10	3.4208e-12
9155.9000	1.5139e-10	2.7457e-12
9157.1500	1.6527e-10	5.1962e-12
9158.4000	1.5602e-10	4.7055e-12
9159.6500	1.5232e-10	3.5927e-12
9160.9000	1.5656e-10	3.6502e-12
9162.1500	1.5848e-10	3.8325e-12
9163.4000	1.5755e-10	3.7926e-12
9164.6500	1.5567e-10	3.5761e-12
9165.9000	1.5120e-10	3.7395e-12
9167.1500	1.4911e-10	3.5005e-12
9168.4000	1.5150e-10	3.2928e-12
9169.6500	1.5120e-10	3.9733e-12
9170.9000	1.4689e-10	3.8498e-12
9172.1500	1.4134e-10	3.4722e-12
9173.4000	1.3570e-10	2.8720e-12
9174.6500	1.4005e-10	2.5908e-12
9175.9000	1.5284e-10	4.0488e-12
9177.1500	1.5664e-10	4.4664e-12
9178.4000	1.5865e-10	4.5800e-12
9179.6500	1.5626e-10	4.0225e-12
9180.9000	1.5420e-10	3.5871e-12
9182.1500	1.5291e-10	3.7673e-12
9183.4000	1.4685e-10	3.6726e-12
9184.6500	1.5080e-10	3.3675e-12
9185.9000	1.6251e-10	3.9650e-12
9187.1500	1.6078e-10	4.0267e-12
9188.4000	1.5628e-10	3.9528e-12
9189.6500	1.5268e-10	3.8318e-12
9190.9000	1.5077e-10	3.6538e-12
9192.1500	1.5203e-10	3.6470e-12
9193.4000	1.5156e-10	3.6933e-12
9194.6500	1.4540e-10	3.4110e-12
9195.9000	1.5136e-10	3.0928e-12
9197.1500	1.6126e-10	4.6454e-12
9198.4000	1.5668e-10	4.2111e-12
9199.6500	1.5244e-10	3.6670e-12
9200.9000	1.5207e-10	3.7726e-12
9202.1500	1.5340e-10	3.7747e-12
9203.4000	1.5310e-10	3.9676e-12
9204.6500	1.5103e-10	3.7295e-12
9205.9000	1.5050e-10	3.5604e-12
9207.1500	1.5141e-10	3.6456e-12
9208.4000	1.5277e-10	3.6994e-12
9209.6500	1.5151e-10	3.7819e-12
9210.9000	1.4560e-10	3.5296e-12
9212.1500	1.4238e-10	3.4832e-12
9213.4000	1.4532e-10	3.4305e-12
9214.6500	1.4882e-10	3.8215e-12
9215.9000	1.4868e-10	3.6693e-12
9217.1500	1.5087e-10	3.5961e-12
9218.4000	1.5503e-10	3.7142e-12
9219.6500	1.4993e-10	3.6423e-12
9220.9000	1.4951e-10	3.6751e-12
9222.1500	1.5298e-10	3.7757e-12
9223.4000	1.5407e-10	3.8024e-12
9224.6500	1.5208e-10	3.5782e-12
9225.9000	1.5044e-10	3.2534e-12
9227.1500	1.5002e-10	3.7264e-12
9228.4000	1.5240e-10	3.9078e-12
9229.6500	1.5349e-10	3.6830e-12
9230.9000	1.5129e-10	3.5983e-12
9232.1500	1.4536e-10	3.5330e-12
9233.4000	1.4285e-10	3.3259e-12
9234.6500	1.4883e-10	3.7768e-12
9235.9000	1.5448e-10	3.8620e-12
9237.1500	1.5130e-10	3.7770e-12
9238.4000	1.5014e-10	3.5368e-12
9239.6500	1.5285e-10	3.5699e-12
9240.9000	1.5125e-10	3.8463e-12
9242.1500	1.4755e-10	3.7243e-12
9243.4000	1.4590e-10	3.5549e-12
9244.6500	1.4878e-10	3.6546e-12
9245.9000	1.5266e-10	3.5725e-12
9247.1500	1.4927e-10	3.2681e-12
9248.4000	1.4453e-10	3.8518e-12
9249.6500	1.4534e-10	3.7455e-12
9250.9000	1.4940e-10	3.6676e-12
9252.1500	1.5371e-10	3.5751e-12
9253.4000	1.5200e-10	3.7479e-12
9254.6500	1.5121e-10	3.6947e-12
9255.9000	1.4967e-10	3.7912e-12
9257.1500	1.4308e-10	3.5646e-12
9258.4000	1.4080e-10	3.5881e-12
9259.6500	1.4011e-10	3.2892e-12
9260.9000	1.4452e-10	3.3591e-12
9262.1500	1.5388e-10	3.9143e-12
9263.4000	1.5527e-10	3.9278e-12
9264.6500	1.4966e-10	3.7057e-12
9265.9000	1.4823e-10	3.5846e-12
9267.1500	1.5296e-10	3.7990e-12
9268.4000	1.5362e-10	3.9551e-12
9269.6500	1.5295e-10	3.7747e-12
9270.9000	1.5142e-10	3.8332e-12
9272.1500	1.4828e-10	3.6288e-12
9273.4000	1.4953e-10	3.6137e-12
9274.6500	1.5263e-10	3.7102e-12
9275.9000	1.5162e-10	3.6570e-12
9277.1500	1.4418e-10	3.7102e-12
9278.4000	1.3819e-10	2.9664e-12
9279.6500	1.4657e-10	2.5716e-12
9280.9000	1.5516e-10	4.3839e-12
9282.1500	1.5205e-10	4.9411e-12
9283.4000	1.4451e-10	3.8878e-12
9284.6500	1.4280e-10	3.2509e-12
9285.9000	1.4924e-10	3.0067e-12
9287.1500	1.4962e-10	3.7326e-12
9288.4000	1.4743e-10	4.3777e-12
9289.6500	1.4555e-10	3.7601e-12
9290.9000	1.4146e-10	3.3327e-12
9292.1500	1.3777e-10	3.2230e-12
9293.4000	1.3842e-10	3.8128e-12
9294.6500	1.4271e-10	3.4286e-12
9295.9000	1.4434e-10	2.8319e-12
9297.1500	1.3878e-10	3.5345e-12
9298.4000	1.3920e-10	2.9736e-12
9299.6500	1.3776e-10	3.9048e-12
9300.9000	1.4078e-10	3.0467e-12
9302.1500	1.5458e-10	4.1289e-12
9303.4000	1.4904e-10	3.5838e-12
9304.6500	1.5241e-10	2.8884e-12
9305.9000	1.4814e-10	5.2297e-12
9307.1500	1.2351e-10	3.4402e-12
9308.4000	1.1789e-10	3.3105e-12
9309.6500	1.5272e-10	3.3233e-12
9310.9000	1.8059e-10	6.3442e-12
9312.1500	1.5584e-10	4.1713e-12
9313.4000	1.3481e-10	3.7449e-12
9314.6500	1.0798e-10	2.5836e-12
9315.9000	1.0322e-10	4.1752e-12
9317.1500	1.5314e-10	3.4406e-12
9318.4000	1.8043e-10	1.0685e-11
9319.6500	1.5406e-10	3.9556e-12
9320.9000	1.4906e-10	6.4781e-12
9322.1500	1.2624e-10	3.5441e-12
9323.4000	1.0897e-10	3.1624e-12
9324.6500	1.1773e-10	3.7080e-12
9325.9000	1.5496e-10	2.5947e-12
9327.1500	1.7315e-10	9.4882e-12
9328.4000	1.5589e-10	3.4489e-12
9329.6500	1.4912e-10	5.9063e-12
9330.9000	1.3181e-10	3.5326e-12
9332.1500	1.1887e-10	2.7765e-12
9333.4000	1.1126e-10	2.5472e-12
9334.6500	1.3747e-10	2.8707e-12
9335.9000	1.6219e-10	5.9775e-12
9337.1500	1.3982e-10	4.3373e-12
9338.4000	1.2432e-10	2.8003e-12
9339.6500	1.4126e-10	2.5284e-12
9340.9000	1.3856e-10	5.3627e-12
9342.1500	8.7508e-11	2.6783e-12
9343.4000	8.8842e-11	8.8859e-12
9344.6500	1.5454e-10	4.3685e-12
9345.9000	2.0954e-10	1.7551e-11
9347.1500	2.0608e-10	1.7533e-11
9348.4000	1.6108e-10	7.2015e-12
9349.6500	1.2062e-10	5.1122e-12
